File: raw_data/EIS/test 2/1_test 2 20241204 163218.csv
Step number,Repeats,Step name,Elapsed Time  (s),DC Working Electrode (V),DC Current (A),Frequency (Hz),|Z| (Ohms),Phase (deg),Z' (Ohms),-Z" (Ohms),THD (%),Amplitude (A),Amplitude (V),No of Cycles,Duration of Each Frequency (s)
1,1,Potentiostatic EIS,0.250352,-0.0174569,-2.95242e-07,2000000,921.227,-3.54698,919.462,56.9934,6.27387,7.81496e-05,0.0719928,1225,0.0006125
1,1,Potentiostatic EIS,0.459079,-0.0198672,8.21711e-08,1909985,1016.91,-10.6018,999.555,187.093,7.16875,8.47454e-05,0.0861838,1450,0.000759168
1,1,Potentiostatic EIS,0.667047,-0.0201743,-1.94339e-07,1824021.75,1115.36,-15.5801,1074.38,299.57,5.74203,0.000107041,0.119391,1360,0.000745605
1,1,Potentiostatic EIS,0.896419,-0.0198888,-5.47758e-07,1741927.125,1171.18,-23.2918,1075.74,463.102,4.84992,0.000145457,0.170355,1360,0.000780744
1,1,Potentiostatic EIS,1.10751,-0.0190842,-6.31688e-07,1663527.625,1297.06,-26.531,1160.48,579.375,4.39823,0.000165234,0.214315,1435,0.000862625
1,1,Potentiostatic EIS,1.31831,-0.0180853,-3.87562e-07,1588656.375,1410.04,-28.9141,1234.27,681.751,4.54617,0.000184977,0.260824,1265,0.00079627
1,1,Potentiostatic EIS,1.53069,-0.0181183,-9.58993e-07,1517155.25,1526.64,-31.2266,1305.46,791.445,5.38883,0.000202433,0.309033,1495,0.000985397
1,1,Potentiostatic EIS,1.74182,-0.0212944,-1.22386e-06,1448872,1634.04,-32.5771,1376.96,879.824,6.91634,0.000215626,0.352337,1495,0.00103184
1,1,Potentiostatic EIS,1.95572,-0.0259718,-3.76671e-07,1383662,1738.71,-33.9714,1441.94,971.555,8.67633,0.000224226,0.389863,1285,0.000928695
1,1,Potentiostatic EIS,2.17014,-0.0271276,-1.17775e-06,1321387,1853.6,-34.9715,1518.91,1062.43,10.3585,0.000227852,0.42234,1445,0.00109355
1,1,Potentiostatic EIS,2.3862,-0.0257841,-6.87771e-07,1261914.75,1954.91,-35.6887,1587.78,1140.46,11.7719,0.000230449,0.450507,1415,0.00112131
1,1,Potentiostatic EIS,2.60364,-0.0255598,-5.93147e-07,1205119.25,2071.04,-36.6542,1661.49,1236.38,13.1562,0.000230234,0.476819,1470,0.0012198
1,1,Potentiostatic EIS,2.82361,-0.0309804,-5.13717e-07,1150880,2173.33,-36.9035,1737.9,1305.02,14.4198,0.000230577,0.501122,1360,0.0011817
1,1,Potentiostatic EIS,3.04741,-0.02969,-9.48331e-07,1099081.875,2282.63,-37.4858,1811.28,1389.13,15.8556,0.000228706,0.522053,1340,0.0012192
1,1,Potentiostatic EIS,3.26283,-0.016858,-5.19684e-07,1049615,2389.17,-37.6144,1892.55,1458.22,12.2556,0.000218664,0.522407,1445,0.0013767
1,1,Potentiostatic EIS,3.47769,-0.00439247,-8.10372e-07,1.00237e+06,2496.3,-37.8833,1970.24,1532.87,7.54941,0.000203486,0.507938,1280,0.00127697
1,1,Potentiostatic EIS,3.69313,0.00106924,-8.34436e-07,957260.25,2598.09,-38.1056,2044.37,1603.31,6.84137,0.000194343,0.504889,1280,0.00133715
1,1,Potentiostatic EIS,3.90792,0.00416263,-1.0946e-07,914176,2699.62,-38.1995,2121.53,1669.45,7.34833,0.000187298,0.505607,1380,0.00150956
1,1,Potentiostatic EIS,4.1235,0.00662106,-6.08015e-07,873032,2799.96,-38.2769,2198.04,1734.47,7.83369,0.000179467,0.502488,1345,0.00154061
1,1,Potentiostatic EIS,4.33924,0.00731698,-7.33355e-07,833739,2898.83,-37.926,2286.61,1781.75,7.93422,0.000172663,0.500526,1355,0.00162521
1,1,Potentiostatic EIS,4.55459,0.00680716,-4.55579e-07,796214.5,3005.45,-38.0343,2367.22,1851.76,7.73165,0.000167066,0.502124,1400,0.00175832
1,1,Potentiostatic EIS,4.77119,0.0065273,-1.18515e-06,760379,3110.17,-37.933,2453.08,1911.94,7.72532,0.000160647,0.499619,1325,0.00174255
1,1,Potentiostatic EIS,4.98647,0.0059784,-8.85041e-07,726156,3198.16,-38.1444,2515.21,1975.33,7.00835,0.000156242,0.499678,1295,0.00178336
1,1,Potentiostatic EIS,5.20255,0.00523721,-4.34874e-07,693473.75,3297.04,-37.9411,2600.19,2027.19,6.1434,0.000151572,0.499704,1305,0.00188183
1,1,Potentiostatic EIS,5.42199,0.00503397,-1.04948e-06,662262.375,3392.97,-37.767,2682.17,2078.03,5.63205,0.000147231,0.499537,1355,0.00204602
1,1,Potentiostatic EIS,5.64242,0.00383408,-4.21212e-07,632456,3491.4,-37.5769,2767.06,2129.15,6.04673,0.000143498,0.501006,1310,0.00207129
1,1,Potentiostatic EIS,5.86337,0.00266838,-4.67448e-07,603991,3599.56,-37.3126,2862.88,2181.92,6.43807,0.000138723,0.499342,1305,0.00216063
1,1,Potentiostatic EIS,6.08652,0.00164026,-4.07647e-07,576806,3689.1,-37.5626,2924.3,2248.97,6.97156,0.000135031,0.498156,1340,0.00232314
1,1,Potentiostatic EIS,6.31629,0.0011486,-9.82731e-07,550846,3791.43,-37.4029,3011.85,2302.98,7.62752,0.000132355,0.501752,1410,0.0025597
1,1,Potentiostatic EIS,6.54234,0.000476715,-1.16327e-06,526053.75,3905.77,-36.5982,3135.69,2328.62,8.11254,0.000127282,0.497108,1410,0.00268033
1,1,Potentiostatic EIS,6.77015,7.47174e-05,-9.58537e-07,502377,3994.25,-36.7596,3200.01,2390.4,8.27428,0.000124993,0.499234,1340,0.00266732
1,1,Potentiostatic EIS,6.99971,-0.000401261,-8.12622e-07,479767,4094.48,-36.3171,3299.13,2424.97,9.74393,0.000121944,0.499297,1320,0.00275134
1,1,Potentiostatic EIS,7.23129,-0.000620213,-1.35758e-06,458173.625,4194.29,-35.853,3399.56,2456.63,9.47169,0.000119041,0.499281,1335,0.00291374
1,1,Potentiostatic EIS,7.46379,-0.00103153,4.19981e-08,437552,4278.56,-35.946,3463.79,2511.61,15.8453,0.000116769,0.499503,1390,0.00317676
1,1,Potentiostatic EIS,7.70423,-0.00117911,-1.16187e-06,417859.375,4365.79,-35.4041,3558.5,2529.27,10.395,0.000114388,0.499324,1395,0.00333844
1,1,Potentiostatic EIS,7.94087,-0.00160097,-1.15186e-06,399053,4442.96,-35.3874,3622.15,2572.93,10.2728,0.000112348,0.499168,1355,0.00339554
1,1,Potentiostatic EIS,8.18535,-0.00159234,-8.33588e-07,381092.25,4548.46,-35.1146,3720.66,2616.34,9.70505,0.000109817,0.499497,1355,0.00355557
1,1,Potentiostatic EIS,8.43233,-0.00201249,-9.34114e-07,363940,4636.99,-34.8159,3806.93,2647.45,10.5312,0.000107524,0.498591,1395,0.00383305
1,1,Potentiostatic EIS,8.67684,-0.00216022,-6.79228e-07,347560,4755.07,-34.5328,3917.24,2695.55,10.3282,0.000105068,0.499588,1330,0.00382667
1,1,Potentiostatic EIS,8.92414,-0.00307374,-7.25986e-07,331917.5,4828.41,-34.0646,3999.89,2704.53,9.70563,0.000103312,0.498835,1375,0.0041426
1,1,Potentiostatic EIS,9.17338,-0.00376411,-4.39308e-07,316979,4947.37,-33.927,4105.08,2761.31,9.78363,0.000100873,0.499023,1390,0.00438515
1,1,Potentiostatic EIS,9.42665,-0.00345931,-6.89532e-07,302712,5013.21,-33.3275,4188.76,2754.38,8.34899,9.96591e-05,0.499614,1385,0.0045753
1,1,Potentiostatic EIS,9.68248,-0.0028809,-1.03285e-06,289088,5177.69,-33.2071,4332.16,2835.65,7.5075,9.65182e-05,0.49973,1355,0.00468715
1,1,Potentiostatic EIS,9.94212,-0.00297803,-4.87631e-07,276077,5252.29,-33.0182,4404.03,2862,6.93418,9.51128e-05,0.499532,1365,0.00494427
1,1,Potentiostatic EIS,10.2031,-0.00250908,-7.7395e-07,263651,5350.58,-32.8829,4493.33,2904.96,8.10597,9.33407e-05,0.499411,1365,0.00517729
1,1,Potentiostatic EIS,10.4686,-0.00249095,-3.6565e-07,251785,5436.41,-32.6818,4575.73,2935.51,6.2659,9.18693e-05,0.499425,1345,0.00534185
1,1,Potentiostatic EIS,10.7386,-0.00219152,-4.23266e-07,240453,5556.5,-32.201,4701.82,2961.01,6.52326,8.98327e-05,0.499149,1370,0.00569758
1,1,Potentiostatic EIS,11.0109,-0.00228365,-6.93209e-08,229631,5630.89,-32.0576,4772.26,2988.72,5.63621,8.86836e-05,0.499415,1385,0.00603142
1,1,Potentiostatic EIS,11.2888,-0.00180823,-9.64862e-07,219296,5695.9,-32.2146,4819.06,3036.43,5.53571,8.76375e-05,0.499139,1345,0.00613327
1,1,Potentiostatic EIS,11.5691,-0.00178228,-7.18193e-07,209426,5880.23,-31.432,5017.36,3066.46,5.2464,8.4943e-05,0.499429,1350,0.0064462
1,1,Potentiostatic EIS,11.8594,-0.0019151,-4.79643e-07,200000,5948.17,-31.0012,5098.51,3063.64,5.80115,8.40307e-05,0.499811,1350,0.00675
1,1,Potentiostatic EIS,12.15,-0.00182146,-7.12226e-07,190999,6052.43,-30.8211,5197.66,3101.02,5.68868,8.25414e-05,0.499522,1350,0.00706811
1,1,Potentiostatic EIS,12.4449,-0.00160671,-5.29727e-07,182402,6186.03,-30.1888,5347.04,3110.65,4.95225,8.07483e-05,0.499488,1350,0.00740123
1,1,Potentiostatic EIS,12.7445,-0.00165782,-2.90948e-07,174193,6209.45,-30.2028,5366.51,3123.74,4.75786,8.04511e-05,0.499495,1355,0.00777874
1,1,Potentiostatic EIS,13.0544,-0.00151669,-6.44893e-07,166353,6333.91,-29.5408,5510.53,3122.9,5.43021,7.88637e-05,0.499523,1365,0.00820545
1,1,Potentiostatic EIS,13.3651,-0.00139411,-6.78511e-07,158866,6388.19,-29.2812,5571.97,3124.44,5.29527,7.82483e-05,0.499896,1380,0.00868658
1,1,Potentiostatic EIS,13.6812,-0.00140851,-5.85223e-07,151716,6533.82,-29.4712,5688.36,3214.55,8.09144,7.65084e-05,0.499869,1370,0.00903006
1,1,Potentiostatic EIS,14.0019,-0.00149701,-6.97488e-07,144887.25,6629.44,-28.6316,5818.79,3176.67,5.71582,7.5395e-05,0.499809,1370,0.00945563
1,1,Potentiostatic EIS,14.3286,-0.00144911,-6.04885e-07,138366,6749.73,-28.4103,5936.81,3211.4,5.14791,7.40355e-05,0.499722,1350,0.00975672
1,1,Potentiostatic EIS,14.6635,-0.0013919,-8.73988e-07,132138.75,6804.82,-28.4968,5980.37,3246.65,8.30542,7.34741e-05,0.499927,1370,0.0103679
1,1,Potentiostatic EIS,15.0048,-0.00143944,-9.74383e-07,126192,6903.31,-28.0775,6090.87,3249.15,5.23255,7.24127e-05,0.499827,1355,0.0107376
1,1,Potentiostatic EIS,15.3521,-0.00139431,-8.09818e-07,120512,7026.84,-27.0616,6257.53,3196.85,5.59431,7.11059e-05,0.499609,1375,0.0114097
1,1,Potentiostatic EIS,15.7083,-0.00144189,-7.28823e-07,115088,7156.69,-27.0414,6374.31,3253.67,6.09948,6.98143e-05,0.499631,1360,0.011817
1,1,Potentiostatic EIS,16.0728,-0.00135088,-6.08178e-07,109908,7233.02,-27.1446,6436.37,3299.97,5.76036,6.9058e-05,0.499461,1365,0.0124194
1,1,Potentiostatic EIS,16.4455,-0.00152995,-7.45583e-07,104962,7262.57,-27.1606,6461.73,3315.26,6.60745,6.87977e-05,0.499682,1365,0.0130048
1,1,Potentiostatic EIS,16.8248,-0.00149031,-4.47004e-07,100237.5,7480.77,-27.1059,6659.12,3408.51,5.66062,6.67796e-05,0.49954,1365,0.0136177
1,1,Potentiostatic EIS,17.2139,-0.00156883,-2.89579e-07,95726.1,7459.62,-27.0731,6642.24,3395.08,6.41937,6.69453e-05,0.499374,1365,0.0142594
1,1,Potentiostatic EIS,17.6136,-0.00122624,-8.00883e-07,91417.7,7525.96,-26.1637,6754.84,3318.47,5.76673,6.64391e-05,0.499861,1360,0.0148768
1,1,Potentiostatic EIS,18.0236,-0.00158251,-5.2089e-07,87303.2,7751.68,-26.6926,6925.58,3482.09,5.4449,6.44568e-05,0.499659,1365,0.0156352
1,1,Potentiostatic EIS,18.4424,-0.00152982,-8.63684e-07,83374,7816.88,-26.2592,7010.19,3458.45,6.12024,6.39176e-05,0.499607,1370,0.016432
1,1,Potentiostatic EIS,18.8732,-0.00152338,-9.6946e-07,79621.5,7935.22,-25.639,7153.9,3433.57,5.94505,6.29705e-05,0.499543,1365,0.0171436
1,1,Potentiostatic EIS,19.3144,-0.00147051,-9.05812e-07,76037.9,8068.88,-25.3826,7289.95,3458.81,6.56033,6.18932e-05,0.499314,1370,0.0180173
1,1,Potentiostatic EIS,19.7674,-0.00145842,-7.28627e-07,72615.7,8063.27,-25.4236,7282.41,3461.62,6.6069,6.19575e-05,0.499523,1365,0.0187976
1,1,Potentiostatic EIS,20.2335,-0.00138369,-9.44483e-07,69347.4,8171.64,-25.2972,7388.01,3491.86,6.36954,6.11091e-05,0.499363,1360,0.0196114
1,1,Potentiostatic EIS,20.4492,-0.00113694,-1.2819e-06,66226.3,8273.97,-25.3463,7477.5,3541.99,5.98232,6.03831e-05,0.499637,1355,0.0204602
1,1,Potentiostatic EIS,20.663,-0.00111211,-7.29051e-07,63245.6,8393.35,-24.8347,7617.16,3525.22,5.87532,5.94838e-05,0.499256,1295,0.0204757
1,1,Potentiostatic EIS,20.8784,-0.0014413,-3.39304e-07,60399.1,8393.3,-24.1514,7658.61,3434.11,7.15078,5.95072e-05,0.499358,1235,0.0204473
1,1,Potentiostatic EIS,21.0928,-0.00149507,-5.01131e-07,57680.625,8560.52,-24.9678,7760.49,3613.48,7.63378,5.83523e-05,0.499431,1180,0.0204575
1,1,Potentiostatic EIS,21.3067,-0.00156648,-4.24375e-07,55084.6,8694.22,-23.7232,7959.55,3497.85,6.44225,5.74887e-05,0.499726,1125,0.0204231
1,1,Potentiostatic EIS,21.5225,-0.00156576,-1.02655e-06,52605.4,8894.31,-23.7602,8140.42,3583.6,7.45912,5.61877e-05,0.499784,1075,0.0204352
1,1,Potentiostatic EIS,21.7381,-0.00141486,-7.78515e-07,50237.8,9004.23,-23.903,8231.96,3648.42,6.60804,5.55213e-05,0.499807,1025,0.020403
1,1,Potentiostatic EIS,21.9522,-0.00126131,-9.72557e-07,47976.7,8921.11,-23.7271,8167.03,3589.68,7.01803,5.6035e-05,0.49992,980,0.0204266
1,1,Potentiostatic EIS,22.1674,-0.00138609,-4.81208e-07,45817.3,9108.81,-23.7644,8336.48,3670.65,7.03892,5.48859e-05,0.499963,935,0.0204071
1,1,Potentiostatic EIS,22.3828,-0.00126685,-9.43831e-07,43755.3,9135.82,-23.4485,8381.37,3635.36,7.4224,5.47417e-05,0.500086,895,0.0204547
1,1,Potentiostatic EIS,22.598,-0.00161131,-2.9222e-07,41785.9,9245.46,-23.4471,8482.04,3678.78,6.06833,5.40382e-05,0.499634,855,0.0204614
1,1,Potentiostatic EIS,22.8138,-0.00118494,-5.32074e-07,39905.3,9368.03,-23.4156,8596.54,3722.84,7.4971,5.33238e-05,0.499505,815,0.0204233
1,1,Potentiostatic EIS,23.0299,-0.00136383,-7.83048e-07,38109.3,9423.2,-22.8387,8684.43,3657.5,7.97372,5.30114e-05,0.499437,780,0.0204675
1,1,Potentiostatic EIS,23.2448,-0.00151305,-9.46081e-07,36394,9517.88,-23.1538,8751.24,3742.44,6.47315,5.24715e-05,0.499398,745,0.0204704
1,1,Potentiostatic EIS,23.46,-0.00136719,-9.12366e-07,34756,9759.62,-22.7021,9003.48,3766.62,8.17763,5.11811e-05,0.499477,710,0.0204281
1,1,Potentiostatic EIS,23.6743,-0.00134113,-4.86914e-07,33191.8,9865.26,-22.719,9099.81,3810.08,7.00003,5.06575e-05,0.499721,675,0.0203364
1,1,Potentiostatic EIS,23.8895,-0.00125081,-6.64196e-07,31697.8,9915.4,-22.9615,9129.78,3868.12,7.88419,5.04056e-05,0.499712,645,0.0203484
1,1,Potentiostatic EIS,24.1024,-0.00172069,-5.91614e-07,30271.2,10094.9,-23.0445,9289.37,3951.63,8.70253,4.95508e-05,0.500111,615,0.0203163
1,1,Potentiostatic EIS,24.3179,-0.00162565,-3.68454e-07,28908.8,10128,-22.171,9379.11,3822.02,8.12604,4.93612e-05,0.499925,590,0.020409
1,1,Potentiostatic EIS,24.5336,-0.00149604,-7.69157e-07,27607.7,10225.8,-22.3203,9459.61,3883.58,8.65579,4.88766e-05,0.49968,565,0.0204653
1,1,Potentiostatic EIS,24.749,-0.00156125,-3.39108e-07,26365.2,10448.7,-22.1817,9675.41,3944.86,8.49364,4.78304e-05,0.49978,535,0.0202919
1,1,Potentiostatic EIS,24.963,-0.00154134,-1.05776e-06,25178.5,10443.4,-22.1703,9671.27,3940.93,8.72777,4.78518e-05,0.499754,515,0.020454
1,1,Potentiostatic EIS,25.1774,-0.00155082,-6.32861e-07,24045.3,10567.4,-21.8889,9805.57,3939.61,8.63391,4.73071e-05,0.499862,490,0.0203782
1,1,Potentiostatic EIS,25.3928,-0.00157187,-4.12408e-07,22963.1,10651.7,-21.9122,9882.18,3975.06,8.18967,4.69149e-05,0.499706,470,0.0204676
1,1,Potentiostatic EIS,25.6078,-0.00148863,-6.66903e-07,21929.6,10919.6,-21.4613,10162.5,3995.17,9.17518,4.57638e-05,0.499596,445,0.0202922
1,1,Potentiostatic EIS,25.8233,-0.00151676,-8.00811e-08,20942.6,10845.1,-21.5833,10084.7,3989.39,8.2302,4.61025e-05,0.499958,425,0.0202936
1,1,Potentiostatic EIS,26.039,-0.00122022,-9.33919e-07,20000,11135.1,-21.6834,10347.2,4114.18,9.58353,4.48863e-05,0.499841,405,0.02025
1,1,Potentiostatic EIS,26.2549,-0.00154654,-5.74235e-07,19099.8,11143.1,-20.7047,10423.4,3939.64,9.15755,4.48694e-05,0.499918,390,0.020419
1,1,Potentiostatic EIS,26.4698,-0.00143221,-9.57298e-07,18240.2,11312.9,-21.5841,10519.6,4161.65,8.9798,4.41729e-05,0.499693,370,0.0202848
1,1,Potentiostatic EIS,26.6845,-0.00156491,-6.3547e-07,17419.3,11487.9,-21.3377,10700.5,4180.05,9.44552,4.35009e-05,0.499755,355,0.0203797
1,1,Potentiostatic EIS,26.8989,-0.00154754,-4.02822e-07,16635.3,11468.4,-21.6771,10657.4,4236.14,9.08169,4.36143e-05,0.499915,340,0.0204385
1,1,Potentiostatic EIS,27.1135,-0.00144961,-6.65566e-07,15886.6,11535.5,-21.5098,10732.1,4229.58,9.29731,4.33374e-05,0.499921,325,0.0204575
1,1,Potentiostatic EIS,27.3279,-0.00127687,-8.17872e-07,15171.6,11826.1,-20.8715,11050.1,4213.32,8.98146,4.22879e-05,0.50003,310,0.020433
1,1,Potentiostatic EIS,27.5431,-0.00132627,-8.14122e-07,14488.7,11813.1,-21.4374,10995.9,4317.5,9.12482,4.23185e-05,0.499912,295,0.0203607
1,1,Potentiostatic EIS,27.7584,-0.00123583,-1.01905e-06,13836.6,12045.4,-21.8094,11183.2,4475.09,10.0517,4.1516e-05,0.500016,280,0.0202362
1,1,Potentiostatic EIS,27.974,-0.00153787,-2.45918e-07,13213.9,12008.5,-21.6591,11160.7,4432.15,9.68472,4.16317e-05,0.49968,270,0.0204331
1,1,Potentiostatic EIS,28.1892,-0.00130699,-6.82782e-07,12619.1,12145.6,-22.0312,11258.7,4555.96,9.76944,4.11658e-05,0.499515,255,0.0202074
1,1,Potentiostatic EIS,28.4048,-0.00146023,-3.89388e-07,12051.2,12298.1,-21.6574,11429.9,4538.67,9.4719,4.06363e-05,0.499685,245,0.0203299
1,1,Potentiostatic EIS,28.6202,-0.0012038,-9.03855e-07,11508.8,12376,-20.6217,11583,4358.76,9.81367,4.03699e-05,0.49961,235,0.0204191
1,1,Potentiostatic EIS,28.833,-0.00139457,-9.09594e-07,10990.8,12768.9,-21.9429,11843.9,4771.5,10.5353,3.91824e-05,0.500093,225,0.0204716
1,1,Potentiostatic EIS,29.0467,-0.00129376,-6.10069e-07,10496.2,12563,-22.0334,11645.5,4712.98,9.92159,3.98039e-05,0.500114,210,0.0200073
1,1,Potentiostatic EIS,29.2597,-0.00130574,-7.6068e-07,10023.8,12697,-21.3159,11828.4,4615.5,12.077,3.93703e-05,0.500007,205,0.0204514
1,1,Potentiostatic EIS,29.3804,-0.00105415,2.7596e-09,9572.6,12821.2,-21.8903,11896.8,4780.14,0.186289,3.90057e-05,0.5001,294,0.0307127
1,1,Potentiostatic EIS,29.4552,-0.00114779,4.2638e-08,9141.77,13020.5,-21.8375,12086.2,4843.29,0.177334,3.80919e-05,0.495975,280,0.0306286
1,1,Potentiostatic EIS,29.5287,-0.00106226,2.39133e-08,8730.33,13131.7,-21.9508,12179.8,4908.77,0.160869,3.783e-05,0.496774,268,0.0306976
1,1,Potentiostatic EIS,29.6028,-0.00126541,-4.01063e-08,8337.39,13206.9,-22.1335,12233.7,4975.91,0.181082,3.7657e-05,0.497333,256,0.0307051
1,1,Potentiostatic EIS,29.6764,-0.00102623,4.02903e-08,7962.16,13391.7,-22.1421,12404,5047.38,0.158403,3.71772e-05,0.497865,244,0.030645
1,1,Potentiostatic EIS,29.7503,-0.00102438,4.49005e-08,7603.78,13501.6,-22.2886,12492.8,5120.76,0.185579,3.6906e-05,0.498289,233,0.0306426
1,1,Potentiostatic EIS,29.8242,-0.0011358,-3.51012e-08,7261.57,13645.9,-22.384,12617.7,5196.55,0.136492,3.6553e-05,0.4988,223,0.0307096
1,1,Potentiostatic EIS,29.8983,-0.00104703,1.42059e-08,6934.74,13786.4,-22.5298,12734.2,5282.45,0.217795,3.61971e-05,0.499028,213,0.0307149
1,1,Potentiostatic EIS,29.9719,-0.00100716,5.9194e-08,6622.63,13919.3,-22.6799,12843,5367.03,0.151633,3.58598e-05,0.499144,203,0.0306525
1,1,Potentiostatic EIS,30.0458,-0.00122648,-2.11132e-08,6324.56,14069.6,-22.8156,12968.7,5455.71,0.174615,3.54959e-05,0.499411,194,0.030674
1,1,Potentiostatic EIS,30.1199,-0.00110551,-1.95886e-08,6039.91,14213.2,-22.9587,13087.3,5544.1,0.0915865,3.51577e-05,0.499702,185,0.0306296
1,1,Potentiostatic EIS,30.1936,-0.00104451,5.74962e-08,5768.06,14361.8,-23.1381,13206.5,5643.46,0.15637,3.47999e-05,0.499788,177,0.0306862
1,1,Potentiostatic EIS,30.2675,-0.00118305,1.30952e-08,5508.46,14509.3,-23.3348,13322.5,5747.17,0.107878,3.44477e-05,0.499811,169,0.0306801
1,1,Potentiostatic EIS,30.3414,-0.00103838,-2.33212e-08,5260.54,14668,-23.5203,13449.4,5853.63,0.131977,3.40815e-05,0.499908,161,0.0306052
1,1,Potentiostatic EIS,30.4151,-0.00107313,3.11116e-08,5023.78,14826.6,-23.7154,13574.6,5963.16,0.0963437,3.37251e-05,0.500029,154,0.0306542
1,1,Potentiostatic EIS,30.4891,-0.00107922,3.75422e-08,4797.67,14993.6,-23.9184,13706,6078.93,0.0784614,3.33548e-05,0.500107,147,0.0306399
1,1,Potentiostatic EIS,30.5626,-0.00108722,-2.17321e-08,4581.73,15111.7,-24.1966,13784.1,6193.82,0.161886,3.31014e-05,0.500219,140,0.0305561
1,1,Potentiostatic EIS,30.6371,-0.00112411,3.27675e-09,4375.53,15329,-24.3348,13967,6316.57,0.0907417,3.26258e-05,0.50012,134,0.0306249
1,1,Potentiostatic EIS,30.7116,-0.00110912,5.72871e-08,4178.6,15511,-24.5369,14110.2,6441.39,0.137056,3.22357e-05,0.500008,128,0.0306323
1,1,Potentiostatic EIS,30.7852,-0.00103282,-3.31e-09,3990.53,15645.9,-24.8244,14200.2,6568.74,0.106842,3.1941e-05,0.499745,122,0.0305724
1,1,Potentiostatic EIS,30.8596,-0.00114828,-2.15304e-08,3810.93,15845.6,-25.0686,14353,6713.85,0.10819,3.15671e-05,0.5002,117,0.0307012
1,1,Potentiostatic EIS,30.9341,-0.00116446,2.58031e-08,3639.4,16058.6,-25.1822,14532.4,6832.88,0.105119,3.11415e-05,0.500088,111,0.0304995
1,1,Potentiostatic EIS,31.0076,-0.00120785,2.51815e-08,3475.6,16170.5,-25.5521,14588.9,6974.82,0.104614,3.09224e-05,0.50003,106,0.0304983
1,1,Potentiostatic EIS,31.0821,-0.00107636,-2.0376e-08,3319.18,16438.1,-25.7355,14807.6,7137.72,0.141696,3.04159e-05,0.499981,101,0.0304292
1,1,Potentiostatic EIS,31.1566,-0.00107227,2.47121e-10,3169.79,16598.2,-25.9482,14924.9,7262.66,0.0805967,3.01269e-05,0.500051,97,0.0306014
1,1,Potentiostatic EIS,31.2301,-0.001167,4.78424e-08,3027.12,16855.7,-26.1099,15135.6,7418.09,0.129413,2.96583e-05,0.49991,92,0.0303919
1,1,Potentiostatic EIS,31.3046,-0.00112195,7.02817e-09,2890.88,17079.7,-26.3651,15303.1,7584.91,0.101169,2.92891e-05,0.500248,88,0.0304405
1,1,Potentiostatic EIS,31.379,-0.00113383,-3.10459e-08,2760.77,17298.4,-26.5711,15471.4,7737.72,0.102939,2.8902e-05,0.49996,84,0.0304263
1,1,Potentiostatic EIS,31.4524,-0.00105534,3.7993e-08,2636.52,17520.1,-26.8438,15632.1,7911.37,0.131278,2.85374e-05,0.499978,80,0.0303431
1,1,Potentiostatic EIS,31.5259,-0.00110615,2.15722e-08,2517.85,17743.2,-27.1011,15795.1,8083.13,0.0992049,2.81781e-05,0.49997,77,0.0305816
1,1,Potentiostatic EIS,31.5993,-0.00115252,-3.11021e-08,2404.53,17966.3,-27.3463,15958.5,8253.13,0.132324,2.78308e-05,0.500015,73,0.0303594
1,1,Potentiostatic EIS,31.6727,-0.00114649,3.70403e-08,2296.31,18221.5,-27.5874,16149.8,8438.37,0.0961949,2.74317e-05,0.499845,70,0.0304837
1,1,Potentiostatic EIS,31.7471,-0.0011302,3.98157e-08,2192.96,18454.3,-27.925,16305.5,8642.45,0.099202,2.70978e-05,0.500071,67,0.0305524
1,1,Potentiostatic EIS,31.8216,-0.00116286,-2.98059e-08,2094.26,18713.1,-28.1531,16499.1,8829.4,0.0824985,2.67145e-05,0.499911,64,0.0305597
1,1,Potentiostatic EIS,31.8953,-0.00111592,-2.3512e-09,2000,18972.7,-28.4649,16679,9042.76,0.0880421,2.63436e-05,0.499807,61,0.0304999
1,1,Potentiostatic EIS,31.9698,-0.00113726,5.72009e-08,1909.99,19225.8,-28.7325,16858.6,9242.26,0.0924062,2.60071e-05,0.500008,58,0.0303667
1,1,Potentiostatic EIS,32.0445,-0.00107363,1.425e-08,1824.02,19435.4,-29.1333,16976.6,9461.98,0.113646,2.57174e-05,0.499828,56,0.0307013
1,1,Potentiostatic EIS,32.119,-0.00116739,-3.1654e-08,1741.93,19788.9,-29.3083,17255.9,9686.85,0.132866,2.52619e-05,0.499905,53,0.0304261
1,1,Potentiostatic EIS,32.1928,-0.00113743,1.89228e-08,1663.53,20076.4,-29.609,17454.7,9919.3,0.106249,2.49053e-05,0.500008,51,0.0306577
1,1,Potentiostatic EIS,32.2673,-0.00110389,5.33106e-08,1588.66,20253.7,-30.127,17517.7,10165.7,0.112615,2.46754e-05,0.499768,48,0.0302142
1,1,Potentiostatic EIS,32.3418,-0.00119316,-7.69448e-09,1517.16,20678.2,-30.2663,17859.6,10422.2,0.0990743,2.4182e-05,0.500039,46,0.0303199
1,1,Potentiostatic EIS,32.4163,-0.00121822,-2.02954e-08,1448.87,20942.3,-30.6624,18014.3,10680.1,0.0994186,2.38751e-05,0.499998,44,0.0303684
1,1,Potentiostatic EIS,32.4907,-0.00115204,3.93151e-08,1383.66,21304.8,-30.9414,18273,10954.1,0.119942,2.34731e-05,0.50009,42,0.0303542
1,1,Potentiostatic EIS,32.5641,-0.0011339,2.59324e-08,1321.39,21661.9,-31.2295,18523.1,11231,0.0927512,2.30834e-05,0.500032,40,0.0302712
1,1,Potentiostatic EIS,32.6376,-0.0011732,-2.15536e-08,1261.92,21910.3,-31.7119,18639.1,11517.1,0.109827,2.28255e-05,0.500114,38,0.0301129
1,1,Potentiostatic EIS,32.7111,-0.00114617,3.09074e-08,1205.12,22370.7,-31.8846,18995.3,11816.4,0.102679,2.23505e-05,0.499997,37,0.0307023
1,1,Potentiostatic EIS,32.7844,-0.00118611,1.85546e-08,1150.88,22682,-32.3364,19164.6,12132.4,0.119246,2.20412e-05,0.499939,35,0.0304115
1,1,Potentiostatic EIS,32.8579,-0.00114281,-3.93411e-08,1099.08,23085,-32.609,19446.1,12440.6,0.104548,2.16569e-05,0.499951,33,0.030025
1,1,Potentiostatic EIS,32.9314,-0.00118881,2.59536e-08,1049.62,23519.8,-32.9024,19747.2,12776.2,0.100581,2.12614e-05,0.500063,32,0.0304874
1,1,Potentiostatic EIS,33.0049,-0.0011853,3.63823e-08,1002.38,23916,-33.2601,19998.3,13116.5,0.108684,2.09073e-05,0.500019,30,0.0299289
1,1,Potentiostatic EIS,33.0786,-0.00117931,-3.93106e-08,957.26,24356.5,-33.5514,20298.5,13461.5,0.0986881,2.05318e-05,0.500082,29,0.0302948
1,1,Potentiostatic EIS,33.1523,-0.00117287,-5.6246e-09,914.177,24790,-33.8662,20584.2,13814.4,0.100254,2.01705e-05,0.500026,28,0.0306286
1,1,Potentiostatic EIS,33.2261,-0.0011778,4.69019e-08,873.033,25237.8,-34.1862,20877.1,14180.8,0.121658,1.98127e-05,0.50003,26,0.0297812
1,1,Potentiostatic EIS,33.2995,-0.00113532,-1.79739e-08,833.74,25714.1,-34.5038,21190.7,14566,0.101656,1.94452e-05,0.500017,25,0.0299854
1,1,Potentiostatic EIS,33.3742,-0.00117286,-2.86508e-08,796.214,26190.4,-34.7856,21510,14941.8,0.121641,1.90867e-05,0.499889,24,0.0301427
1,1,Potentiostatic EIS,33.4478,-0.00119585,4.12244e-08,760.38,26685.8,-35.0628,21842.9,15330.3,0.102375,1.87343e-05,0.49994,23,0.030248
1,1,Potentiostatic EIS,33.5223,-0.00114981,1.50109e-08,726.157,27207.4,-35.3739,22184.7,15750.6,0.114254,1.83778e-05,0.500013,22,0.0302965
1,1,Potentiostatic EIS,33.596,-0.00116464,-3.92629e-08,693.474,27722.2,-35.6409,22529.4,16153.8,0.12043,1.80361e-05,0.500001,21,0.0302823
1,1,Potentiostatic EIS,33.6697,-0.00118609,5.14356e-08,662.263,28245.9,-35.9254,22873,16572.8,0.118598,1.77017e-05,0.500002,20,0.0301995
1,1,Potentiostatic EIS,33.7431,-0.00115359,3.71423e-08,632.455,28804.1,-36.1593,23255.8,16995.3,0.123424,1.73583e-05,0.49999,19,0.0300416
1,1,Potentiostatic EIS,33.8162,-0.00117719,-5.13853e-08,603.99,29386.6,-36.4214,23646.6,17447.4,0.114678,1.7015e-05,0.500013,18,0.0298018
1,1,Potentiostatic EIS,33.8896,-0.00118325,7.17181e-09,576.807,29971.9,-36.6501,24046.3,17891,0.123192,1.66821e-05,0.499996,17,0.0294726
1,1,Potentiostatic EIS,33.9626,-0.00118393,3.91236e-08,550.847,30567.9,-36.9315,24434.6,18367,0.119314,1.63546e-05,0.499925,16,0.0290462
1,1,Potentiostatic EIS,34.0825,-0.00117928,6.6979e-08,526.055,31169.3,-37.1767,24835,18834.8,0.188757,1.60397e-05,0.499946,16,0.0304151
1,1,Potentiostatic EIS,34.1561,-0.00118115,2.56842e-08,502.377,31803.9,-37.406,25263.5,19319.6,0.159855,1.57199e-05,0.499954,15,0.029858
1,1,Potentiostatic EIS,34.2301,-0.00117919,5.85591e-08,479.766,32461.9,-37.5563,25734.3,19786.8,0.194259,1.53983e-05,0.499858,14,0.0291809
1,1,Potentiostatic EIS,34.3046,-0.00112589,1.04072e-07,458.174,33123.5,-37.7302,26197.4,20269.7,0.163799,1.50931e-05,0.499937,14,0.0305561
1,1,Potentiostatic EIS,34.379,-0.00114454,4.4782e-08,437.553,33822.6,-38.0064,26650.2,20826.3,0.188774,1.47847e-05,0.500058,13,0.0297107
1,1,Potentiostatic EIS,34.4529,-0.00112105,3.74565e-08,417.86,34488,-38.2753,27074.5,21363.3,0.130176,1.44969e-05,0.499968,12,0.0287178
1,1,Potentiostatic EIS,34.5273,-0.00115752,5.15704e-08,399.053,35181.9,-38.3849,27577.6,21845.9,0.167482,1.42141e-05,0.500079,12,0.0300712
1,1,Potentiostatic EIS,34.6004,-0.00118176,6.27252e-08,381.093,35900.1,-38.7461,27999.4,22468.8,0.235475,1.39289e-05,0.500049,11,0.0288644
1,1,Potentiostatic EIS,34.6739,-0.00115437,6.43297e-08,363.94,36677.5,-38.8886,28548.6,23026.4,0.207383,1.36339e-05,0.500057,11,0.0302247
1,1,Potentiostatic EIS,34.747,-0.00117525,1.12971e-07,347.56,37490.6,-38.997,29136.9,23592.1,0.18985,1.33369e-05,0.500008,10,0.028772
1,1,Potentiostatic EIS,34.8205,-0.00114444,1.11679e-07,331.918,38172.7,-39.224,29571.6,24138.6,0.174339,1.30971e-05,0.499952,10,0.030128
1,1,Potentiostatic EIS,34.8934,-0.00110904,7.0689e-08,316.979,39005.6,-39.2737,30195.5,24691.5,0.218149,1.28179e-05,0.49997,9,0.028393
1,1,Potentiostatic EIS,34.9667,-0.00111959,6.56888e-08,302.713,39797.4,-39.5789,30673.8,25356.6,0.170574,1.25629e-05,0.499972,9,0.0297312
1,1,Potentiostatic EIS,35.0393,-0.00113375,6.32466e-08,289.088,40664.5,-39.6505,31309.7,25948.2,0.0960343,1.22952e-05,0.499978,8,0.0276732
1,1,Potentiostatic EIS,35.1126,-0.00112144,3.71396e-08,276.077,41508.2,-39.8788,31853.5,26613.6,0.182411,1.20454e-05,0.499984,8,0.0289774
1,1,Potentiostatic EIS,35.1858,-0.00115286,7.57168e-08,263.652,42348.8,-40.032,32425.9,27239.4,0.134289,1.18075e-05,0.500034,8,0.0303431
1,1,Potentiostatic EIS,35.2602,-0.00113964,9.756e-08,251.785,43236.3,-40.3076,32971.3,27969.2,0.144819,1.15639e-05,0.499982,8,0.0317731
1,1,Potentiostatic EIS,35.3372,-0.00112878,6.58844e-08,240.453,44179.2,-40.4696,33609.3,28674.2,0.180886,1.13187e-05,0.500051,8,0.0332705
1,1,Potentiostatic EIS,35.4146,-0.00112815,-3.93504e-09,229.631,45140.6,-40.6274,34259.9,29392.7,0.340901,1.10779e-05,0.500065,8,0.0348386
1,1,Potentiostatic EIS,35.4938,-0.00114267,1.35728e-08,219.296,46125.1,-40.7682,34933.2,30119.7,0.328045,1.08405e-05,0.500019,8,0.0364804
1,1,Potentiostatic EIS,35.5746,-0.00113184,4.90968e-09,209.426,47141.1,-40.9782,35589.6,30913.9,0.254123,1.06051e-05,0.499937,8,0.0381996
1,1,Potentiostatic EIS,35.659,-0.0011456,3.04432e-08,200,48123.5,-41.139,36242.6,31659.8,0.257659,1.03914e-05,0.50007,8,0.04
1,1,Potentiostatic EIS,35.7435,-0.00112988,5.79952e-08,190.999,49185.7,-41.2869,36958.9,32454.2,0.136126,1.01667e-05,0.500058,8,0.041885
1,1,Potentiostatic EIS,35.8301,-0.00115469,6.97805e-08,182.402,50242.7,-41.4175,37677.5,33237.6,0.144382,9.95371e-06,0.500101,8,0.0438591
1,1,Potentiostatic EIS,35.9208,-0.00111398,5.26298e-08,174.193,51279.2,-41.5465,38378.2,34009.8,0.311758,9.74892e-06,0.499917,8,0.0459261
1,1,Potentiostatic EIS,36.0128,-0.00111213,4.83859e-08,166.353,52427.4,-41.793,39087.7,34939.8,0.164864,9.5374e-06,0.500022,8,0.0480905
1,1,Potentiostatic EIS,36.1062,-0.00110852,6.87145e-08,158.866,53711.9,-41.8388,40016.6,35827.8,0.202694,9.30878e-06,0.499992,8,0.050357
1,1,Potentiostatic EIS,36.2016,-0.00111592,6.69807e-08,151.716,54744.1,-42.032,40662.4,36653.6,0.351728,9.13253e-06,0.499952,8,0.0527302
1,1,Potentiostatic EIS,36.2996,-0.00114077,7.04574e-08,144.887,56091.2,-42.2529,41517.8,37716,0.219597,8.91397e-06,0.499995,8,0.0552154
1,1,Potentiostatic EIS,36.4026,-0.00112087,5.51502e-08,138.367,57187.4,-42.3889,42237.9,38553.4,0.202767,8.74424e-06,0.500061,8,0.0578175
1,1,Potentiostatic EIS,36.5084,-0.00116121,8.74862e-08,132.139,58423.1,-42.6272,42986.3,39565.5,0.20969,8.55832e-06,0.500003,8,0.0605425
1,1,Potentiostatic EIS,36.6147,-0.00111661,7.17497e-08,126.192,59837.2,-42.689,43983,40570.8,0.305079,8.35748e-06,0.500089,8,0.0633956
1,1,Potentiostatic EIS,36.7259,-0.00115225,3.20699e-08,120.512,61171.8,-42.9174,44798.3,41654.5,0.24222,8.17229e-06,0.499913,8,0.0663834
1,1,Potentiostatic EIS,36.8407,-0.00114267,4.80843e-08,115.088,62531.4,-43.1157,45646.4,42738.6,0.257751,7.99657e-06,0.500037,8,0.0695119
1,1,Potentiostatic EIS,36.9564,-0.00112822,3.62154e-08,109.908,63958.3,-42.9971,46778.3,43617.1,0.379028,7.81736e-06,0.499985,8,0.0727879
1,1,Potentiostatic EIS,37.0754,-0.00116381,1.02873e-07,104.962,65258,-43.4323,47389.6,44864.7,0.206773,7.66327e-06,0.50009,8,0.0762184
1,1,Potentiostatic EIS,37.1982,-0.00119204,8.50912e-08,100.238,66805.2,-43.3847,48551.2,45888.1,0.260989,7.48495e-06,0.500033,8,0.0798104
1,1,Potentiostatic EIS,37.3251,-0.00118781,5.40719e-08,95.7261,68504.3,-43.7114,49516.9,47338.3,0.181293,7.29857e-06,0.499984,8,0.0835717
1,1,Potentiostatic EIS,37.4559,-0.00117895,7.43528e-08,91.4177,69874.1,-43.6688,50543,48247.3,0.341838,7.15611e-06,0.500026,8,0.0875104
1,1,Potentiostatic EIS,37.5947,-0.00115467,6.55652e-08,87.3033,71750.6,-43.9914,51620.6,49834.4,0.462573,6.96769e-06,0.499936,8,0.0916346
1,1,Potentiostatic EIS,37.848,-0.0011421,1.77318e-09,83.3739,73490.5,-44.068,52804,51113.5,0.275633,6.80521e-06,0.500119,8,0.0959533
1,1,Potentiostatic EIS,37.9957,-0.00118191,5.02333e-09,79.6215,75102.6,-44.1694,53869.8,52330.1,0.158598,6.65716e-06,0.49997,8,0.100475
1,1,Potentiostatic EIS,38.1454,-0.00112325,-4.11329e-09,76.0379,76994.3,-44.3677,55040.7,53839.1,0.266181,6.49387e-06,0.499991,8,0.105211
1,1,Potentiostatic EIS,38.3005,-0.00120687,1.02141e-08,72.6157,78705.1,-44.2164,56408.8,54886.6,0.256681,6.35285e-06,0.500001,8,0.110169
1,1,Potentiostatic EIS,38.4654,-0.00115187,2.59408e-09,69.3475,80462.2,-44.7857,57107.7,56682.2,0.340763,6.21463e-06,0.500043,8,0.115361
1,1,Potentiostatic EIS,38.6317,-0.00115872,6.2878e-09,66.2263,82355.6,-44.6873,58551.2,57915.5,0.207435,6.07099e-06,0.49998,8,0.120798
1,1,Potentiostatic EIS,38.8042,-0.00113503,-4.52021e-09,63.2457,84411.2,-45.1256,59556.7,59818.4,0.28684,5.92298e-06,0.499965,8,0.126491
1,1,Potentiostatic EIS,38.983,-0.00106651,3.624e-09,60.3992,86056.1,-45.3715,60455,61244.1,0.28254,5.81125e-06,0.500093,8,0.132452
1,1,Potentiostatic EIS,39.1736,-0.00112411,3.51791e-09,57.6807,88543.7,-45.1065,62493.4,62726.1,0.27391,5.64593e-06,0.499911,8,0.138695
1,1,Potentiostatic EIS,39.3713,-0.00103631,1.04396e-08,55.0846,90803.4,-44.5695,64688.4,63723.4,0.26397,5.50704e-06,0.500058,8,0.145231
1,1,Potentiostatic EIS,39.5708,-0.00119159,2.4287e-09,52.6054,90181.1,-44.7872,64004.1,63530.4,0.249014,5.54547e-06,0.500097,8,0.152076
1,1,Potentiostatic EIS,39.778,-0.00112166,4.90816e-09,50.2378,97074.2,-43.7145,70164.5,67084.7,0.780015,5.15183e-06,0.50011,8,0.159243
1,1,Potentiostatic EIS,39.9972,-0.00122942,3.58519e-09,47.9768,97441.8,-43.7561,70381.2,67389.8,0.156791,5.13274e-06,0.500144,8,0.166747
1,1,Potentiostatic EIS,40.2206,-0.00109402,5.23062e-09,45.8174,100510,-45.9838,69840.7,72281.3,0.357029,4.97536e-06,0.500074,8,0.174606
1,1,Potentiostatic EIS,40.4527,-0.00123837,5.67557e-09,43.7552,101480,-45.9691,70533.5,72960.9,0.513717,4.92819e-06,0.500114,8,0.182835
1,1,Potentiostatic EIS,40.694,-0.00118772,1.05149e-08,41.786,103926,-45.4484,72909.1,74059.3,0.423302,4.81172e-06,0.50006,8,0.191452
1,1,Potentiostatic EIS,40.9508,-0.00111673,5.19443e-09,39.9053,106949,-45.9582,74349.3,76878.6,0.163434,4.67472e-06,0.499958,8,0.200475
1,1,Potentiostatic EIS,41.2197,-0.0011593,-6.52338e-10,38.1093,110039,-45.9592,76495.7,79100.8,0.34553,4.54399e-06,0.500015,8,0.209923
1,1,Potentiostatic EIS,41.4975,-0.00123,3.25202e-09,36.3941,112153,-46.1757,77660.5,80914.9,0.142965,4.45999e-06,0.500203,8,0.219816
1,1,Potentiostatic EIS,41.7867,-0.0012535,4.551e-09,34.7561,115085,-46.1158,79777.1,82946.4,0.813283,4.34537e-06,0.500086,8,0.230176
1,1,Potentiostatic EIS,42.0807,-0.00122746,3.72264e-09,33.1917,117636,-46.3327,81224.1,85093.3,0.22204,4.25084e-06,0.500052,8,0.241024
1,1,Potentiostatic EIS,42.2148,0.000294194,2.42823e-08,31.6979,118977,-47.3135,80664.8,87457.1,4.02695,4.21433e-06,0.50141,2,0.0630957
1,1,Potentiostatic EIS,42.3506,-0.0031775,-1.54241e-08,30.2713,123583,-47.0984,84127.9,90527.3,4.15642,4.06044e-06,0.501606,2,0.0660693
1,1,Potentiostatic EIS,42.4876,-0.00154635,-2.46242e-09,28.9088,126472,-46.8555,86486.6,92277.7,4.57368,3.94594e-06,0.499018,2,0.069183
1,1,Potentiostatic EIS,42.6341,0.00119716,6.72904e-08,27.6077,128393,-47.1329,87345.8,94103.6,5.7739,3.90627e-06,0.501545,2,0.0724435
1,1,Potentiostatic EIS,42.7742,-0.00114331,4.41142e-09,26.3652,133103,-46.9913,90791.2,97331.9,5.4731,3.76703e-06,0.501403,2,0.0758577
1,1,Potentiostatic EIS,42.9311,-0.00126821,9.2192e-09,25.1785,135962,-46.9465,92818.8,99349.9,5.44224,3.70374e-06,0.503569,2,0.0794327
1,1,Potentiostatic EIS,43.0997,-0.00109997,2.5934e-08,24.0453,139206,-47.0434,94860.9,101881,5.472,3.6017e-06,0.501378,2,0.0831763
1,1,Potentiostatic EIS,43.2702,-4.57464e-05,2.24879e-08,22.9631,143568,-47.3696,97233.6,105628,5.64432,3.47992e-06,0.499596,2,0.0870962
1,1,Potentiostatic EIS,43.4586,-0.00115162,2.5612e-10,21.9296,146513,-46.7392,100408,106697,5.55506,3.41736e-06,0.500687,2,0.0912009
1,1,Potentiostatic EIS,43.6579,0.000136851,1.67094e-08,20.9426,151010,-47.9394,101164,112116,5.7437,3.31896e-06,0.501202,2,0.0954991
1,1,Potentiostatic EIS,43.8456,-0.000406954,3.19454e-09,20,152277,-47.393,103087,112078,5.80373,3.28752e-06,0.50063,2,0.0999999
1,1,Potentiostatic EIS,44.0467,-0.00086591,-1.24438e-08,19.0999,155439,-47.4654,105082,114538,5.95948,3.20935e-06,0.498862,2,0.104713
1,1,Potentiostatic EIS,44.2603,-0.000675296,1.80505e-08,18.2402,162375,-47.4319,109841,119585,6.34725,3.0858e-06,0.501035,2,0.109648
1,1,Potentiostatic EIS,44.4855,-0.000783277,3.57974e-08,17.4193,164284,-47.6858,110595,121482,6.33131,3.04753e-06,0.500633,2,0.114815
1,1,Potentiostatic EIS,44.713,-0.000282536,9.99623e-09,16.6353,169741,-47.7231,114187,125592,6.81235,2.94659e-06,0.500158,2,0.120226
1,1,Potentiostatic EIS,44.9539,-0.00101742,7.36349e-09,15.8866,173982,-47.7125,117064,128708,6.76202,2.87859e-06,0.500819,2,0.125892
1,1,Potentiostatic EIS,45.2032,-0.00206167,-5.00529e-09,15.1716,178619,-48.2167,119017,133191,6.90499,2.80978e-06,0.501871,2,0.131826
1,1,Potentiostatic EIS,45.4423,-0.00110295,3.42629e-09,14.4888,181226,-47.6602,122061,133956,7.03391,2.76174e-06,0.5005,2,0.138038
1,1,Potentiostatic EIS,45.712,-0.00104476,1.75727e-08,13.8366,189410,-47.769,127306,140247,7.36756,2.63892e-06,0.499837,2,0.144544
1,1,Potentiostatic EIS,45.9984,-0.00146647,7.87771e-09,13.2139,192578,-48.0312,128782,143183,7.6083,2.6042e-06,0.501516,2,0.151356
1,1,Potentiostatic EIS,46.2983,-0.00134683,3.06836e-09,12.6191,197647,-48.263,131576,147486,7.90981,2.52637e-06,0.49933,2,0.158489
1,1,Potentiostatic EIS,46.6127,-0.0015395,-1.20581e-08,12.0512,204009,-48.3879,135479,152529,8.1573,2.45714e-06,0.501281,2,0.165958
1,1,Potentiostatic EIS,46.937,-0.00107348,-1.51076e-09,11.5088,208124,-48.1217,138933,154962,8.12387,2.40544e-06,0.500636,2,0.17378
1,1,Potentiostatic EIS,47.2817,-0.000981562,8.88784e-09,10.9908,213778,-48.7448,140968,160714,8.34815,2.33572e-06,0.499307,2,0.18197
1,1,Potentiostatic EIS,47.6342,-0.00145973,5.76685e-09,10.4962,218295,-48.0629,145890,162385,11.1519,2.29529e-06,0.501083,2,0.190546
1,1,Potentiostatic EIS,48.0108,-0.00186612,1.36844e-09,10.0238,225426,-48.5354,149267,168926,9.07081,2.22075e-06,0.500614,2,0.199526
1,1,Potentiostatic EIS,48.3998,-0.000997949,1.04861e-08,9.57261,230297,-48.9063,151372,173560,9.07485,2.17393e-06,0.500648,2,0.208929
1,1,Potentiostatic EIS,48.8099,-0.000329667,1.30945e-08,9.14179,238027,-48.9683,156259,179554,9.30045,2.10411e-06,0.500841,2,0.218776
1,1,Potentiostatic EIS,49.2408,-0.00108354,7.82409e-09,8.73033,244815,-48.7966,161268,184193,9.65375,2.04454e-06,0.500529,2,0.229086
1,1,Potentiostatic EIS,49.6821,-0.00174487,2.262e-09,8.33741,250684,-48.8147,165075,188661,9.92886,1.99821e-06,0.500919,2,0.239883
1,1,Potentiostatic EIS,50.1499,-0.000969776,-3.18974e-09,7.96215,258243,-48.3993,171457,193112,10.239,1.93848e-06,0.500597,2,0.251188
1,1,Potentiostatic EIS,50.6456,-0.000291555,8.25058e-09,7.60381,265073,-48.7687,174709,199349,10.3575,1.88936e-06,0.50081,2,0.263026
1,1,Potentiostatic EIS,51.1151,-0.00159197,1.33715e-09,7.26156,272507,-48.7676,179613,204936,10.7686,1.83715e-06,0.500633,2,0.275423
1,1,Potentiostatic EIS,51.6523,-0.000597134,7.61037e-09,6.93474,279718,-48.9958,183527,211093,10.9886,1.79033e-06,0.500788,2,0.288403
1,1,Potentiostatic EIS,52.2015,-0.00109866,1.00081e-08,6.62262,288936,-48.523,191368,216477,11.2669,1.73094e-06,0.500134,2,0.301995
1,1,Potentiostatic EIS,52.7888,-0.00169941,1.82298e-09,6.32456,296398,-48.8123,195186,223056,11.7502,1.68967e-06,0.500816,2,0.316228
1,1,Potentiostatic EIS,53.3081,-0.00107005,2.06226e-09,6.03991,304276,-48.6643,200965,228466,11.9199,1.6449e-06,0.500501,2,0.331131
1,1,Potentiostatic EIS,53.9598,-0.00132128,5.56298e-09,5.76807,312952,-48.5838,207026,234691,12.2704,1.598e-06,0.500092,2,0.346736
1,1,Potentiostatic EIS,54.6423,-0.00103865,3.19874e-09,5.50847,322643,-48.328,214514,241002,12.7573,1.55145e-06,0.500564,2,0.363077
1,1,Potentiostatic EIS,55.3523,-0.00108653,1.12572e-08,5.26054,334254,-48.4455,221721,250131,13.0696,1.495e-06,0.499711,2,0.380189
1,1,Potentiostatic EIS,56.0889,-0.00123582,5.00124e-09,5.02378,341464,-48.1291,227911,254271,13.5265,1.46565e-06,0.500466,2,0.398107
1,1,Potentiostatic EIS,56.8017,-0.00108463,3.44193e-09,4.79768,349954,-47.7797,235163,259165,13.5534,1.42888e-06,0.500042,2,0.416869
1,1,Potentiostatic EIS,57.9933,-0.00128378,1.38706e-08,4.58174,361191,-47.64,243366,266894,14.3073,1.38504e-06,0.500263,2,0.436515
1,1,Potentiostatic EIS,58.8517,-0.00115317,1.10697e-08,4.37553,372890,-47.4975,251933,274912,14.334,1.34086e-06,0.499987,2,0.457087
1,1,Potentiostatic EIS,59.7499,-0.00105991,1.23353e-08,4.17859,382238,-47.6867,257317,282655,15.2424,1.30889e-06,0.500309,2,0.47863
1,1,Potentiostatic EIS,60.6798,-0.00100668,1.01744e-08,3.99053,391939,-47.4152,265217,288575,14.6981,1.27567e-06,0.499978,2,0.501186
1,1,Potentiostatic EIS,61.6424,-0.00141517,1.26631e-08,3.81093,404427,-47.0795,275408,296161,15.6988,1.23731e-06,0.500401,2,0.524806
1,1,Potentiostatic EIS,62.4986,-0.00112471,1.2192e-08,3.63941,416746,-46.8183,285185,303886,5.32874,1.20024e-06,0.500196,2,0.549539
1,1,Potentiostatic EIS,63.4622,-0.000887447,1.34853e-08,3.47561,429517,-46.3855,296282,310969,4.71755,1.16448e-06,0.500163,2,0.575438
1,1,Potentiostatic EIS,64.4861,-0.00108757,1.34109e-08,3.31918,440328,-45.9517,306144,316487,1.21226,1.13617e-06,0.500288,2,0.602559
1,1,Potentiostatic EIS,65.644,-0.000953509,1.14508e-08,3.16979,452722,-45.5542,317011,323204,2.07511,1.1047e-06,0.500121,2,0.630956
1,1,Potentiostatic EIS,66.8466,-0.00112198,1.03397e-08,3.02713,469878,-44.7796,333529,330973,6.85881,1.06469e-06,0.500258,2,0.660692
1,1,Potentiostatic EIS,68.1179,-0.00108406,1.08367e-08,2.89089,479461,-44.5895,341451,336593,2.10868,1.0432e-06,0.500177,2,0.691829
1,1,Potentiostatic EIS,69.4347,-0.00104443,1.15256e-08,2.76077,491278,-44.2734,351764,342953,1.2597,1.01765e-06,0.499948,2,0.724435
1,1,Potentiostatic EIS,70.8187,-0.00122163,1.33746e-08,2.63652,506582,-43.626,366693,349515,0.975083,9.87781e-07,0.50039,2,0.758577
1,1,Potentiostatic EIS,72.2593,-0.00102234,1.17367e-08,2.51786,519425,-43.1355,379045,355144,0.885375,9.63065e-07,0.50024,2,0.794326
1,1,Potentiostatic EIS,73.6481,-0.00109605,1.42607e-08,2.40453,533500,-42.6312,392511,361327,1.35728,9.37073e-07,0.499924,2,0.831762
1,1,Potentiostatic EIS,75.2438,-0.00102666,1.36676e-08,2.29631,546558,-42.1079,405483,366483,1.38529,9.15286e-07,0.500257,2,0.870963
1,1,Potentiostatic EIS,76.8933,-0.0010515,1.25443e-08,2.19296,560950,-41.4662,420346,371449,0.835187,8.91602e-07,0.500143,2,0.912008
1,1,Potentiostatic EIS,78.6405,-0.0013592,2.16609e-08,2.09426,591535,-38.3419,463954,366960,12.5712,8.45902e-07,0.50038,2,0.954992
1,1,Potentiostatic EIS,80.3321,-0.00102394,1.30492e-08,2,589508,-40.0293,451395,379159,0.391577,8.47762e-07,0.499762,2,0.999999
1,1,Potentiostatic EIS,82.2313,-0.0013365,1.24842e-08,1.90999,602673,-39.3146,466275,381841,0.684561,8.3055e-07,0.500551,2,1.04713
1,1,Potentiostatic EIS,84.2227,-0.00105886,1.36224e-08,1.82403,616613,-38.7868,480639,386261,1.53169,8.11294e-07,0.500253,2,1.09648
1,1,Potentiostatic EIS,86.1523,-0.00108782,1.17035e-08,1.74193,632081,-37.9697,498292,388885,0.61651,7.91276e-07,0.50015,2,1.14815
1,1,Potentiostatic EIS,88.3627,-0.00108734,1.19921e-08,1.66353,645850,-37.108,515065,389654,0.318699,7.74568e-07,0.500254,2,1.20226
1,1,Potentiostatic EIS,90.6756,-0.000891143,1.33366e-08,1.58866,660617,-36.353,532048,391586,1.16662,7.57114e-07,0.500159,2,1.25892
1,1,Potentiostatic EIS,92.8862,-0.00108963,1.31145e-08,1.51716,673977,-35.6609,547594,392920,0.254209,7.42608e-07,0.500501,2,1.31826
1,1,Potentiostatic EIS,95.1731,-0.00119909,2.30945e-08,1.44887,712601,-32.7928,599037,385947,10.0492,7.02835e-07,0.500391,2,1.38038
1,1,Potentiostatic EIS,97.7958,-0.0011405,2.00689e-08,1.38367,722528,-32.4146,609952,387305,11.0473,6.92744e-07,0.500092,2,1.44544
1,1,Potentiostatic EIS,100.553,-0.00102516,1.23827e-08,1.32139,712148,-32.9879,597340,387738,0.308989,7.02091e-07,0.499993,2,1.51356
1,1,Potentiostatic EIS,103.393,-0.00140598,1.08719e-08,1.26192,727138,-32.2677,614841,388201,0.844646,6.88421e-07,0.500576,2,1.58489
1,1,Potentiostatic EIS,106.433,-0.00109841,1.23113e-08,1.20512,738584,-31.3385,630832,384133,1.17562,6.77281e-07,0.500232,2,1.65959
1,1,Potentiostatic EIS,109.544,-0.00103052,1.30162e-08,1.15088,750470,-30.5647,646197,381622,0.491257,6.66124e-07,0.499906,2,1.7378
1,1,Potentiostatic EIS,112.874,-0.0012588,1.14702e-08,1.09908,764964,-29.8253,663641,380460,1.03885,6.53947e-07,0.500242,2,1.8197
1,1,Potentiostatic EIS,116.271,-0.000992959,1.1458e-08,1.04962,775216,-28.989,678091,375702,1.1107,6.45319e-07,0.500262,2,1.90546
1,1,Potentiostatic EIS,119.9,-0.0011228,1.24206e-08,1.00238,788719,-28.3398,694189,374405,0.275379,6.34059e-07,0.500094,2,1.99526
1,1,Potentiostatic EIS,123.218,-0.00110954,1.26853e-08,1,788807,-28.2963,694551,373919,0.331407,6.3432e-07,0.500356,2,2