File: raw_data/EIS/20.8C EIS Test 6/1_20.8C EIS Test 6 20241203 145529.csv
Step number,Repeats,Step name,Elapsed Time  (s),DC Working Electrode (V),DC Current (A),Frequency (Hz),|Z| (Ohms),Phase (deg),Z' (Ohms),-Z" (Ohms),THD (%),Amplitude (A),Amplitude (V),No of Cycles,Duration of Each Frequency (s)
1,1,Potentiostatic EIS,0.384278,7.65804,-8.46468e-07,2000000,2615.74,-64.4304,1128.97,2359.56,2.59581,0.000183957,0.481145,1225,0.0006125
1,1,Potentiostatic EIS,0.637047,7.66695,-8.30882e-07,1909985,3012.86,-65.499,1249.46,2741.57,3.1534,0.000161458,0.486529,1450,0.000759168
1,1,Potentiostatic EIS,0.871323,7.67744,-7.39094e-07,1824021.75,3422,-66.0027,1391.7,3126.22,3.14262,0.000141394,0.483834,1360,0.000745605
1,1,Potentiostatic EIS,1.10677,7.68417,-8.71803e-07,1741927.125,3803.83,-66.2666,1530.97,3482.13,3.12256,0.000128021,0.486983,1360,0.000780744
1,1,Potentiostatic EIS,1.34172,7.69146,-9.63982e-07,1663527.625,4218.58,-65.9193,1721.28,3851.44,3.60329,0.000116874,0.492978,1435,0.000862625
1,1,Potentiostatic EIS,1.57786,7.6963,-6.89956e-07,1588656.375,4581.35,-66.5772,1821.14,4203.83,4.33807,0.000108195,0.495628,1265,0.00079627
1,1,Potentiostatic EIS,1.79496,7.69995,-6.65436e-07,1517155.25,4970.11,-66.0505,2017.53,4542.2,4.64771,0.000100319,0.498625,1495,0.000985397
1,1,Potentiostatic EIS,2.01179,7.70304,-8.33588e-07,1448872,5378.5,-66.1959,2170.82,4920.95,5.48917,9.60486e-05,0.516562,1495,0.00103184
1,1,Potentiostatic EIS,2.23158,7.70728,-9.43505e-07,1383662,5722.26,-65.755,2349.79,5217.54,7.78726,9.03233e-05,0.51685,1285,0.000928695
1,1,Potentiostatic EIS,2.47155,7.7123,-1.06764e-06,1321387,6160.76,-66.0689,2499.04,5631.14,14.5988,8.03633e-05,0.495124,1445,0.00109355
1,1,Potentiostatic EIS,2.69294,7.71614,-9.0004e-07,1261914.75,6555.78,-65.059,2764.47,5944.4,17.3824,7.82039e-05,0.512772,1415,0.00112131
1,1,Potentiostatic EIS,2.91628,7.71848,-5.8806e-07,1205119.25,6881.27,-64.6627,2944.81,6219.32,12.8601,7.39453e-05,0.508867,1470,0.0012198
1,1,Potentiostatic EIS,3.14027,7.71833,-3.9092e-07,1150880,7402.62,-64.2064,3221.11,6665.08,9.82601,6.87353e-05,0.508802,1360,0.0011817
1,1,Potentiostatic EIS,3.36613,7.71806,-6.37948e-07,1099081.875,7736.69,-64.1476,3373.62,6962.4,9.4766,6.56433e-05,0.507902,1340,0.0012192
1,1,Potentiostatic EIS,3.58154,7.71826,-7.68505e-07,1049615,8191.54,-62.9956,3719.44,7298.43,8.86351,6.14887e-05,0.50377,1445,0.0013767
1,1,Potentiostatic EIS,3.79778,7.71853,-9.58634e-07,1.00237e+06,8616.6,-62.876,3928.46,7668.96,9.18555,5.82742e-05,0.502162,1280,0.00127697
1,1,Potentiostatic EIS,4.01469,7.7184,-5.84604e-07,957260.25,8976.79,-61.9853,4216.38,7924.96,8.6587,5.57472e-05,0.500317,1280,0.00133715
1,1,Potentiostatic EIS,4.22931,7.71866,-6.41959e-07,914176,9439.65,-62.0213,4428.55,8336.36,10.2078,5.31249e-05,0.501432,1380,0.00150956
1,1,Potentiostatic EIS,4.44449,7.71863,-9.70308e-07,873032,9867.24,-60.6956,4829.51,8604.54,11.1311,5.06234e-05,0.499452,1345,0.00154061
1,1,Potentiostatic EIS,4.66068,7.71874,-9.62743e-07,833739,10289.2,-61.2543,4948.29,9021.16,10.1534,4.847e-05,0.498566,1355,0.00162521
1,1,Potentiostatic EIS,4.87673,7.71906,-6.72707e-07,796214.5,10877.6,-59.2451,5562.45,9347.83,9.4192,4.59188e-05,0.499071,1400,0.00175832
1,1,Potentiostatic EIS,5.09425,7.71904,-8.42457e-07,760379,11152.6,-59.0147,5741.54,9561.08,10.0911,4.47254e-05,0.498865,1325,0.00174255
1,1,Potentiostatic EIS,5.31218,7.71916,-7.45289e-07,726156,11686.6,-58.6017,6088.54,9975.3,10.9617,4.26911e-05,0.498931,1295,0.00178336
1,1,Potentiostatic EIS,5.53026,7.7192,-7.6994e-07,693473.75,12209.1,-57.9333,6481.91,10346.4,9.2311,4.08265e-05,0.498441,1305,0.00188183
1,1,Potentiostatic EIS,5.74995,7.71935,-1.81285e-08,662262.375,12498.5,-56.2404,6945.53,10391,9.79521,3.99344e-05,0.499118,1355,0.00204602
1,1,Potentiostatic EIS,5.97134,7.71948,-7.82787e-07,632456,12876.4,-56.6913,7071.07,10761.1,10.2636,3.86431e-05,0.497573,1310,0.00207129
1,1,Potentiostatic EIS,6.19333,7.71933,-6.14569e-07,603991,13431,-54.5261,7794.44,10937.9,12.4358,3.7116e-05,0.498551,1305,0.00216063
1,1,Potentiostatic EIS,6.41624,7.71909,-4.88675e-07,576806,13976.2,-54.8102,8054.28,11422,11.4387,3.57151e-05,0.499115,1340,0.00232314
1,1,Potentiostatic EIS,6.64164,7.71952,-6.72544e-07,550846,14479.2,-52.6885,8776.56,11516.1,11.2595,3.44453e-05,0.498257,1410,0.0025597
1,1,Potentiostatic EIS,6.86828,7.71922,-9.49994e-07,526053.75,14746.9,-53.1624,8841.48,11802.5,11.9478,3.37939e-05,0.498402,1410,0.00268033
1,1,Potentiostatic EIS,7.09622,7.71956,-7.12878e-07,502377,15437.4,-53.0768,9273.92,12341.3,12.5493,3.22648e-05,0.497916,1340,0.00266732
1,1,Potentiostatic EIS,7.32299,7.71932,-2.82764e-07,479767,15988.6,-53.1046,9598.84,12786.6,11.7793,3.11281e-05,0.497982,1320,0.00275134
1,1,Potentiostatic EIS,7.55476,7.71953,-4.26918e-07,458173.625,16445.5,-50.3385,10496.4,12660.2,13.0411,3.03346e-05,0.49885,1335,0.00291374
1,1,Potentiostatic EIS,7.78846,7.7194,-8.20774e-07,437552,17055.7,-49.3086,11120,12932.2,13.7198,2.92235e-05,0.498401,1390,0.00317676
1,1,Potentiostatic EIS,8.02411,7.71968,-1.02952e-06,417859.375,17157.1,-48.6748,11329.4,12884.5,13.2804,2.90708e-05,0.49874,1395,0.00333844
1,1,Potentiostatic EIS,8.26123,7.71944,-9.05062e-07,399053,17816.7,-49.218,11637.5,13490.8,13.0466,2.80106e-05,0.498445,1355,0.00339554
1,1,Potentiostatic EIS,8.50503,7.71949,-5.83039e-07,381092.25,18306.2,-47.2057,12436.7,13433.1,12.7746,2.72378e-05,0.498798,1355,0.00355557
1,1,Potentiostatic EIS,8.74668,7.71953,-5.47171e-07,363940,19167,-45.8954,13339.6,13763.2,14.3231,2.60408e-05,0.49893,1395,0.00383305
1,1,Potentiostatic EIS,8.99569,7.71959,-6.89206e-07,347560,19061.4,-46.0532,13228.4,13723.9,15.4664,2.61815e-05,0.498656,1330,0.00382667
1,1,Potentiostatic EIS,9.24218,7.71961,-8.12459e-07,331917.5,20151.9,-44.2328,14439,14057.4,14.0264,2.47433e-05,0.498752,1375,0.0041426
1,1,Potentiostatic EIS,9.49034,7.71942,-3.58411e-07,316979,21267.8,-43.372,15459.8,14605.3,15.3509,2.34976e-05,0.499303,1390,0.00438515
1,1,Potentiostatic EIS,9.74284,7.71956,-5.18575e-07,302712,20724.8,-43.0769,15138.2,14154.6,14.2424,2.40782e-05,0.49886,1385,0.0045753
1,1,Potentiostatic EIS,9.99635,7.71947,-5.3452e-07,289088,21305.4,-41.8694,15865.5,14220,17.7161,2.34265e-05,0.499008,1355,0.00468715
1,1,Potentiostatic EIS,10.254,7.71949,-5.93929e-07,276077,21645.7,-40.8237,16379.8,14150.5,17.1115,2.30763e-05,0.499265,1365,0.00494427
1,1,Potentiostatic EIS,10.5155,7.71956,-5.70941e-07,263651,21338,-38.9334,16598.4,13409.2,15.052,2.342e-05,0.499125,1365,0.00517729
1,1,Potentiostatic EIS,10.7825,7.71959,-8.24295e-07,251785,22549.7,-40.259,17208.4,14572.6,17.878,2.21376e-05,0.499245,1345,0.00534185
1,1,Potentiostatic EIS,11.0527,7.71953,-7.7682e-07,240453,22510.1,-36.5301,18087.8,13399,18.5314,2.22043e-05,0.499034,1370,0.00569758
1,1,Potentiostatic EIS,11.3254,7.71951,-4.09832e-07,229631,23422.6,-37.0246,18700,14104.1,17.3369,2.13382e-05,0.499238,1385,0.00603142
1,1,Potentiostatic EIS,11.5991,7.71936,-8.39588e-07,219296,23819.4,-36.5279,19140.5,14177.6,19.8228,2.09644e-05,0.499182,1345,0.00613327
1,1,Potentiostatic EIS,11.8795,7.71967,-8.70205e-07,209426,23505,-37.4389,18663,14289,19.764,2.12537e-05,0.498978,1350,0.0064462
1,1,Potentiostatic EIS,12.164,7.71961,-4.8023e-07,200000,24558.3,-35.1545,20078.9,14140.3,18.15,2.03299e-05,0.499286,1350,0.00675
1,1,Potentiostatic EIS,12.4524,7.7196,-1.30035e-06,190999,24957.4,-34.422,20587.3,14108,20.3642,2.00285e-05,0.499224,1350,0.00706811
1,1,Potentiostatic EIS,12.747,7.7196,-6.97031e-07,182402,25143.9,-31.1094,21527.8,12991.2,20.3559,1.99105e-05,0.499257,1350,0.00740123
1,1,Potentiostatic EIS,13.0475,7.71965,-8.22795e-07,174193,25494,-30.9813,21856.9,13123.2,18.4928,1.95832e-05,0.499241,1355,0.00777874
1,1,Potentiostatic EIS,13.3534,7.71957,-8.55434e-07,166353,25806.8,-33.0548,21630,14076.1,18.1384,1.9362e-05,0.499195,1365,0.00820545
1,1,Potentiostatic EIS,13.6636,7.71946,-5.60083e-07,158866,26927.5,-30.706,23152.2,13750,21.4595,1.85522e-05,0.499332,1380,0.00868658
1,1,Potentiostatic EIS,13.9797,7.71971,-7.24845e-07,151716,26239.6,-30.3732,22638.2,13267.5,18.6967,1.90451e-05,0.499335,1370,0.00903006
1,1,Potentiostatic EIS,14.3009,7.71959,-8.12622e-07,144887.25,26893.1,-28.9885,23523.9,13033.3,19.8755,1.85839e-05,0.49948,1370,0.00945563
1,1,Potentiostatic EIS,14.6274,7.71948,-6.50436e-07,138366,27506.2,-29.6819,23897.1,13620.6,20.4924,1.81592e-05,0.499335,1350,0.00975672
1,1,Potentiostatic EIS,14.9605,7.71965,-5.11956e-07,132138.75,28449.1,-28.0591,25105.3,13382,20.9307,1.75599e-05,0.49957,1370,0.0103679
1,1,Potentiostatic EIS,15.3009,7.71947,-3.60303e-07,126192,27620,-27.8881,24412.3,12919.2,19.7199,1.80738e-05,0.499479,1355,0.0107376
1,1,Potentiostatic EIS,15.649,7.71945,-8.31762e-07,120512,28621.6,-25.8203,25764.2,12466.1,22.1246,1.74928e-05,0.499357,1375,0.0114097
1,1,Potentiostatic EIS,16.0043,7.7195,-8.18035e-07,115088,28171.7,-24.3609,25663.5,11620.4,23.6454,1.77229e-05,0.499237,1360,0.011817
1,1,Potentiostatic EIS,16.3668,7.71971,-7.3642e-07,109908,28529.9,-25.562,25737.4,12310.3,19.4326,1.74868e-05,0.499148,1365,0.0124194
1,1,Potentiostatic EIS,16.7368,7.71965,-7.97232e-07,104962,29676.7,-24.8825,26921.9,12486.8,21.7099,1.68661e-05,0.499275,1365,0.0130048
1,1,Potentiostatic EIS,17.117,7.71942,-7.08737e-07,100237.5,29789.2,-23.7246,27271.7,11985.4,22.5284,1.6829e-05,0.499577,1365,0.0136177
1,1,Potentiostatic EIS,17.5064,7.71965,-9.48885e-07,95726.1,29540.3,-23.9808,26990.5,12006.1,23.2131,1.69088e-05,0.499394,1365,0.0142594
1,1,Potentiostatic EIS,17.9103,7.71963,-1.00719e-06,91417.7,29374,-24.0321,26827.8,11962.5,22.6551,1.69667e-05,0.498996,1360,0.0148768
1,1,Potentiostatic EIS,18.3174,7.71967,-5.82256e-07,87303.2,30560.3,-23.9691,27925,12415,20.1929,1.63761e-05,0.499301,1365,0.0156352
1,1,Potentiostatic EIS,18.736,7.71978,-8.23936e-07,83374,30160.7,-22.9353,27776.4,11753.4,22.0338,1.65658e-05,0.499283,1370,0.016432
1,1,Potentiostatic EIS,19.1673,7.71964,-4.46841e-07,79621.5,31414.7,-20.9959,29329,11255.9,25.1598,1.58758e-05,0.49924,1365,0.0171436
1,1,Potentiostatic EIS,19.6093,7.71973,-1.15874e-06,76037.9,30872.7,-20.1535,28982.5,10636.8,24.637,1.62042e-05,0.49932,1370,0.0180173
1,1,Potentiostatic EIS,20.0628,7.7197,-7.69353e-07,72615.7,30560.3,-20.6756,28592.1,10790.1,21.4111,1.63502e-05,0.4992,1365,0.0187976
1,1,Potentiostatic EIS,20.5271,7.71977,-5.11597e-07,69347.4,31444.7,-19.9762,29552.9,10742.4,22.0513,1.58642e-05,0.499468,1360,0.0196114
1,1,Potentiostatic EIS,20.7419,7.71965,-7.56082e-07,66226.3,31231.5,-20.4573,29261.8,10915.7,23.2215,1.6008e-05,0.499509,1355,0.0204602
1,1,Potentiostatic EIS,20.9583,7.71949,-8.56347e-07,63245.6,31265.3,-19.3395,29501.1,10354,22.0611,1.59746e-05,0.499459,1295,0.0204757
1,1,Potentiostatic EIS,21.1725,7.71957,-9.62384e-07,60399.1,31417.1,-17.8178,29910.2,9613.34,20.7892,1.59506e-05,0.499346,1235,0.0204473
1,1,Potentiostatic EIS,21.3867,7.71945,-2.72949e-07,57680.625,31566.7,-18.3948,29953.8,9961.28,27.2612,1.58306e-05,0.499539,1180,0.0204575
1,1,Potentiostatic EIS,21.6019,7.71959,-1.0035e-06,55084.6,31722.6,-18.7908,30031.8,10218.3,20.6454,1.57386e-05,0.499342,1125,0.0204231
1,1,Potentiostatic EIS,21.8159,7.71944,-7.20834e-07,52605.4,33046.8,-19.9377,31066.1,11268.9,21.8355,1.51155e-05,0.499008,1075,0.0204352
1,1,Potentiostatic EIS,22.0312,7.71968,-5.14988e-07,50237.8,33040.4,-18.9998,31240.3,10756.8,25.2824,1.5135e-05,0.499487,1025,0.020403
1,1,Potentiostatic EIS,22.2464,7.71943,-8.65738e-07,47976.7,33269.2,-16.6703,31870.9,9543.75,22.2558,1.50389e-05,0.499267,980,0.0204266
1,1,Potentiostatic EIS,22.4609,7.71954,-7.91102e-07,45817.3,33114.1,-16.5815,31737,9450.08,24.7415,1.50905e-05,0.499607,935,0.0204071
1,1,Potentiostatic EIS,22.6753,7.71971,-8.35023e-07,43755.3,33648,-17.4556,32098.5,10093.2,27.0538,1.48297e-05,0.49928,895,0.0204547
1,1,Potentiostatic EIS,22.8904,7.71954,-7.79494e-07,41785.9,32690,-17.444,31186.6,9799.59,25.9794,1.53006e-05,0.499389,855,0.0204614
1,1,Potentiostatic EIS,23.1075,7.71961,-7.1878e-07,39905.3,35049.6,-17.5229,33423.2,10553,25.8296,1.42491e-05,0.499381,815,0.0204233
1,1,Potentiostatic EIS,23.3213,7.71965,-8.82596e-07,38109.3,34929.5,-14.3019,33847,8628.71,22.5685,1.42875e-05,0.499198,780,0.0204675
1,1,Potentiostatic EIS,23.537,7.71952,-7.94264e-07,36394,35813.4,-14.805,34624.5,9151.41,28.7036,1.39558e-05,0.499257,745,0.0204704
1,1,Potentiostatic EIS,23.7523,7.71965,-6.61979e-07,34756,34816.6,-17.3269,33236.7,10369.2,25.0428,1.439e-05,0.499776,710,0.0204281
1,1,Potentiostatic EIS,23.9679,7.71968,-6.06613e-07,33191.8,34859.4,-15.2327,33634.7,9158.95,27.8692,1.43479e-05,0.499443,675,0.0203364
1,1,Potentiostatic EIS,24.1816,7.71967,-5.96896e-07,31697.8,35627.9,-14.7853,34448.2,9092.13,29.4792,1.40172e-05,0.499126,645,0.0203484
1,1,Potentiostatic EIS,24.395,7.71963,-1.1367e-06,30271.2,35987.9,-16.1435,34568.9,10006.2,27.3763,1.38961e-05,0.499328,615,0.0203163
1,1,Potentiostatic EIS,24.6109,7.71971,-1.15085e-06,28908.8,37141.6,-13.4005,36130.4,8607.78,26.7833,1.34503e-05,0.499272,590,0.020409
1,1,Potentiostatic EIS,24.8244,7.71955,-5.43356e-07,27607.7,35885.5,-13.7747,34853.5,8544.53,23.0282,1.39269e-05,0.499316,565,0.0204653
1,1,Potentiostatic EIS,25.0403,7.71964,-8.1272e-07,26365.2,36778.9,-15.8191,35386,10025.9,30.8052,1.36435e-05,0.499541,535,0.0202919
1,1,Potentiostatic EIS,25.2539,7.71971,-6.57284e-07,25178.5,34602,-13.9626,33579.6,8349.09,26.1681,1.44449e-05,0.499489,515,0.020454
1,1,Potentiostatic EIS,25.4687,7.71983,-7.05216e-07,24045.3,35624.3,-12.9599,34716.9,7989.46,28.2419,1.40614e-05,0.499428,490,0.0203782
1,1,Potentiostatic EIS,25.685,7.71955,-5.88353e-07,22963.1,36096.4,-14.1475,35001.6,8822.65,27.5913,1.38608e-05,0.499356,470,0.0204676
1,1,Potentiostatic EIS,25.9007,7.71952,-7.8833e-07,21929.6,36376,-10.4914,35767.9,6623.66,30.5517,1.37952e-05,0.499475,445,0.0202922
1,1,Potentiostatic EIS,26.1143,7.71956,-5.15934e-07,20942.6,37935.8,-11.8087,37132.9,7763.35,29.037,1.31677e-05,0.4993,425,0.0202936
1,1,Potentiostatic EIS,26.3293,7.71941,-3.72465e-07,20000,37320.2,-15.1874,36016.8,9777.04,27.8147,1.33799e-05,0.49944,405,0.02025
1,1,Potentiostatic EIS,26.5432,7.7195,-4.9037e-07,19099.8,36752,-15.0865,35485.3,9565.7,33.5908,1.36043e-05,0.499428,390,0.020419
1,1,Potentiostatic EIS,26.7565,7.71942,-8.66488e-07,18240.2,37796.6,-13.679,36724.5,8938.21,28.6713,1.32276e-05,0.499299,370,0.0202848
1,1,Potentiostatic EIS,26.9699,7.71971,-7.74505e-07,17419.3,36811.3,-14.1066,35701.3,8971.9,26.1672,1.35793e-05,0.499444,355,0.0203797
1,1,Potentiostatic EIS,27.1844,7.71968,-8.49239e-07,16635.3,38233.3,-12.959,37259.5,8573.94,31.7021,1.30788e-05,0.499302,340,0.0204385
1,1,Potentiostatic EIS,27.3989,7.71949,-5.35139e-07,15886.6,37622.9,-12.5209,36728.1,8156.48,26.7298,1.32691e-05,0.499537,325,0.0204575
1,1,Potentiostatic EIS,27.6136,7.7197,-8.53021e-07,15171.6,38431.5,-12.6136,37504,8392.51,23.6358,1.30102e-05,0.499011,310,0.020433
1,1,Potentiostatic EIS,27.8296,7.71981,-4.93338e-07,14488.7,38464.4,-14.1997,37289.2,9435.43,29.6906,1.3008e-05,0.499442,295,0.0203607
1,1,Potentiostatic EIS,28.0445,7.71968,-7.07857e-07,13836.6,40233.8,-10.3809,39575.2,7249.79,28.7298,1.24191e-05,0.499175,280,0.0202362
1,1,Potentiostatic EIS,28.2582,7.71958,-6.86304e-07,13213.9,40423.5,-11.6066,39596.9,8132.84,31.8648,1.24026e-05,0.49941,270,0.0204331
1,1,Potentiostatic EIS,28.474,7.71959,-1.00836e-06,12619.1,40236.7,-13.4657,39130.6,9369.63,28.8264,1.24101e-05,0.499538,255,0.0202074
1,1,Potentiostatic EIS,28.6873,7.71951,-1.04465e-06,12051.2,39641.8,-13.4591,38553.1,9226.7,30.8506,1.2606e-05,0.499384,245,0.0203299
1,1,Potentiostatic EIS,28.9021,7.71972,-1.09982e-06,11508.8,38071.7,-12.4931,37170.3,8235.75,28.451,1.31196e-05,0.499476,235,0.0204191
1,1,Potentiostatic EIS,29.1163,7.71967,-9.43407e-07,10990.8,39602,-11.4082,38819.6,7833.21,27.6313,1.26048e-05,0.499278,225,0.0204716
1,1,Potentiostatic EIS,29.33,7.71984,-7.11867e-07,10496.2,41256.3,-14.9502,39859.8,10643.3,32.2911,1.21017e-05,0.499156,210,0.0200073
1,1,Potentiostatic EIS,29.5452,7.71949,-9.62547e-07,10023.8,39646,-13.0366,38624.2,8943.12,26.1856,1.26382e-05,0.499433,205,0.0204514
1,1,Potentiostatic EIS,29.7112,7.72101,2.3888e-07,9572.6,40656.8,-12.5066,39692,8804.35,0.244266,1.23107e-05,0.500515,294,0.0307127
1,1,Potentiostatic EIS,29.7864,7.72102,2.30829e-07,9141.77,40900.5,-12.472,39935.3,8832.93,0.337982,1.21154e-05,0.495525,280,0.0306286
1,1,Potentiostatic EIS,29.86,7.72102,2.4734e-07,8730.33,41110.8,-12.4829,40139,8886.02,0.241132,1.20727e-05,0.496319,268,0.0306976
1,1,Potentiostatic EIS,29.9342,7.72123,2.46634e-07,8337.39,41357.3,-12.4771,40380.5,8935.24,0.212673,1.2019e-05,0.497073,256,0.0307051
1,1,Potentiostatic EIS,30.0081,7.72116,2.31766e-07,7962.16,41620.2,-12.4828,40636.3,8996.05,0.213824,1.1966e-05,0.498028,244,0.030645
1,1,Potentiostatic EIS,30.0822,7.72104,2.5218e-07,7603.78,41846.3,-12.4574,40861.1,9026.8,0.228488,1.19128e-05,0.498507,233,0.0306426
1,1,Potentiostatic EIS,30.1562,7.72116,2.45268e-07,7261.57,42058.1,-12.423,41073.3,9047.86,0.244784,1.18588e-05,0.498759,223,0.0307096
1,1,Potentiostatic EIS,30.2299,7.72095,2.26269e-07,6934.74,42308.6,-12.4809,41308.8,9143.45,0.33748,1.1794e-05,0.498987,213,0.0307149
1,1,Potentiostatic EIS,30.3038,7.72103,2.48925e-07,6622.63,42537.4,-12.4523,41536.7,9172.21,0.223785,1.17442e-05,0.499565,203,0.0306525
1,1,Potentiostatic EIS,30.3772,7.72113,2.53927e-07,6324.56,42808.5,-12.46,41800.2,9236.3,0.259728,1.1678e-05,0.499918,194,0.030674
1,1,Potentiostatic EIS,30.451,7.72118,2.28158e-07,6039.91,43074.2,-12.4466,42061.8,9283.76,0.272315,1.16128e-05,0.500213,185,0.0306296
1,1,Potentiostatic EIS,30.5246,7.72104,2.48075e-07,5768.06,43351.4,-12.4061,42339.2,9313.58,0.224909,1.15406e-05,0.500303,177,0.0306862
1,1,Potentiostatic EIS,30.5985,7.72107,2.47943e-07,5508.46,43581.4,-12.4166,42562.1,9370.81,0.235647,1.14821e-05,0.500407,169,0.0306801
1,1,Potentiostatic EIS,30.6726,7.72118,2.30418e-07,5260.54,43860.2,-12.4037,42836.5,9421.08,0.199238,1.14103e-05,0.500459,161,0.0306052
1,1,Potentiostatic EIS,30.7461,7.72113,2.44751e-07,5023.78,44115.2,-12.3825,43089,9459.9,0.278681,1.13424e-05,0.500372,154,0.0306542
1,1,Potentiostatic EIS,30.8198,7.7211,2.4833e-07,4797.67,44357.5,-12.4293,43317.8,9547.29,0.266905,1.128e-05,0.500351,147,0.0306399
1,1,Potentiostatic EIS,30.8949,7.7211,2.32309e-07,4581.73,44616.6,-12.4375,43569.5,9609.3,0.230874,1.1211e-05,0.500198,140,0.0305561
1,1,Potentiostatic EIS,30.9688,7.72111,2.38684e-07,4375.53,44911.9,-12.4618,43853.8,9691.46,0.235592,1.11362e-05,0.500149,134,0.0306249
1,1,Potentiostatic EIS,31.0427,7.72116,2.50733e-07,4178.6,45167,-12.4672,44102,9750.65,0.34163,1.10688e-05,0.499946,128,0.0306323
1,1,Potentiostatic EIS,31.1172,7.72106,2.44792e-07,3990.53,45410.8,-12.4791,44338,9812.54,0.305329,1.10096e-05,0.499954,122,0.0305724
1,1,Potentiostatic EIS,31.1922,7.72107,2.31691e-07,3810.93,45704.1,-12.5236,44616.6,9910.58,0.336517,1.09419e-05,0.500089,117,0.0307012
1,1,Potentiostatic EIS,31.266,7.72115,2.55178e-07,3639.4,45978,-12.5453,44880.2,9986.93,0.243188,1.08751e-05,0.500016,111,0.0304995
1,1,Potentiostatic EIS,31.3409,7.72114,2.53376e-07,3475.6,46267.5,-12.5429,45163.3,10047.9,0.207756,1.08137e-05,0.500324,106,0.0304983
1,1,Potentiostatic EIS,31.4147,7.72114,2.3214e-07,3319.18,46554.9,-12.6002,45433.7,10155.8,0.251317,1.0744e-05,0.500187,101,0.0304292
1,1,Potentiostatic EIS,31.4888,7.72107,2.42737e-07,3169.79,46842.1,-12.6098,45712.3,10226.1,0.242767,1.06808e-05,0.500311,97,0.0306014
1,1,Potentiostatic EIS,31.5635,7.72109,2.49189e-07,3027.12,47130.1,-12.6327,45989.2,10307.3,0.379939,1.06098e-05,0.500039,92,0.0303919
1,1,Potentiostatic EIS,31.6374,7.72109,2.39554e-07,2890.88,47432.6,-12.6974,46272.6,10425.8,0.308049,1.0539e-05,0.499892,88,0.0304405
1,1,Potentiostatic EIS,31.712,7.72118,2.41804e-07,2760.77,47727.3,-12.7383,46552.6,10523.8,0.28269,1.04819e-05,0.500275,84,0.0304263
1,1,Potentiostatic EIS,31.7859,7.72111,2.49246e-07,2636.52,48025.4,-12.7486,46841.5,10597.9,0.301222,1.04143e-05,0.50015,80,0.0303431
1,1,Potentiostatic EIS,31.8598,7.72113,2.48657e-07,2517.85,48289.2,-12.7418,47100,10650.6,0.301036,1.03601e-05,0.50028,77,0.0305816
1,1,Potentiostatic EIS,31.9332,7.72112,2.34615e-07,2404.53,48608.4,-12.8293,47394.9,10793.3,0.254208,1.02886e-05,0.500113,73,0.0303594
1,1,Potentiostatic EIS,32.0071,7.72105,2.48488e-07,2296.31,48903.7,-12.8576,47677.5,10882.5,0.219269,1.02246e-05,0.500022,70,0.0304837
1,1,Potentiostatic EIS,32.0809,7.72106,2.50529e-07,2192.96,49199.6,-12.876,47962.4,10963.8,0.279028,1.0167e-05,0.50021,67,0.0305524
1,1,Potentiostatic EIS,32.1548,7.72102,2.29518e-07,2094.26,49583.4,-12.9252,48327.1,11090.7,0.362616,1.00847e-05,0.500034,64,0.0305597
1,1,Potentiostatic EIS,32.2284,7.72112,2.51049e-07,2000,49884.5,-12.9117,48623.2,11146.6,0.208154,1.003e-05,0.500344,61,0.0304999
1,1,Potentiostatic EIS,32.3022,7.72101,2.54838e-07,1909.99,50184.4,-13.0167,48894.9,11303.3,0.239663,9.96549e-06,0.500112,58,0.0303667
1,1,Potentiostatic EIS,32.3761,7.72109,2.36861e-07,1824.02,50502,-13.0181,49204,11376,0.21952,9.90243e-06,0.500093,56,0.0307013
1,1,Potentiostatic EIS,32.4499,7.72104,2.45132e-07,1741.93,50850,-13.1026,49526.2,11527.4,0.220329,9.84006e-06,0.500368,53,0.0304261
1,1,Potentiostatic EIS,32.5244,7.72103,2.45244e-07,1663.53,51190.9,-13.0905,49860.6,11594.3,0.191552,9.76856e-06,0.500062,51,0.0306577
1,1,Potentiostatic EIS,32.5991,7.721,2.24707e-07,1588.66,51519.4,-13.0795,50182.8,11659,0.240877,9.70558e-06,0.500025,48,0.0302142
1,1,Potentiostatic EIS,32.673,7.7211,2.34465e-07,1517.16,51868.2,-13.1459,50508.9,11796.4,0.276219,9.64576e-06,0.500308,46,0.0303199
1,1,Potentiostatic EIS,32.7468,7.72108,2.40309e-07,1448.87,52222.8,-13.1568,50852,11886.7,0.224007,9.57886e-06,0.500235,44,0.0303684
1,1,Potentiostatic EIS,32.8205,7.72105,2.31719e-07,1383.66,52561.4,-13.2079,51171.1,12009.5,0.241704,9.51726e-06,0.500241,42,0.0303542
1,1,Potentiostatic EIS,32.8941,7.72108,2.41065e-07,1321.39,52888.7,-13.2058,51490.1,12082.4,0.228327,9.45756e-06,0.500198,40,0.0302712
1,1,Potentiostatic EIS,32.9679,7.72107,2.46322e-07,1261.92,53219.5,-13.2352,51805.9,12184.5,0.269131,9.40039e-06,0.500284,38,0.0301129
1,1,Potentiostatic EIS,33.0414,7.72104,2.3573e-07,1205.12,53598.5,-13.3024,52160.4,12332.5,0.222427,9.33113e-06,0.500135,37,0.0307023
1,1,Potentiostatic EIS,33.1154,7.72108,2.4722e-07,1150.88,53936.4,-13.289,52492.2,12398,0.243313,9.27561e-06,0.500294,35,0.0304115
1,1,Potentiostatic EIS,33.1891,7.72104,2.50358e-07,1099.08,54265.5,-13.3689,52795,12547.3,0.21386,9.21698e-06,0.500164,33,0.030025
1,1,Potentiostatic EIS,33.2627,7.72102,2.40966e-07,1049.62,54565.9,-13.2757,53107.7,12530.3,0.231333,9.16261e-06,0.499966,32,0.0304874
1,1,Potentiostatic EIS,33.3366,7.72104,2.44433e-07,1002.38,54972.7,-13.3278,53492.1,12672.4,0.243462,9.09553e-06,0.500006,30,0.0299289
1,1,Potentiostatic EIS,33.4102,7.72101,2.606e-07,957.26,55285.6,-13.4209,53775.9,12831.9,0.247604,9.04596e-06,0.500112,29,0.0302948
1,1,Potentiostatic EIS,33.4841,7.72102,2.65086e-07,914.177,55570.8,-13.4394,54049.1,12915.5,0.186605,8.99591e-06,0.49991,28,0.0306286
1,1,Potentiostatic EIS,33.5577,7.72105,2.51968e-07,873.033,55967,-13.4692,54427.6,13036,0.250722,8.93372e-06,0.499993,26,0.0297812
1,1,Potentiostatic EIS,33.6316,7.72111,2.59249e-07,833.74,56251.9,-13.4901,54699.9,13122.3,0.285583,8.88767e-06,0.499949,25,0.0299854
1,1,Potentiostatic EIS,33.7053,7.72108,2.55851e-07,796.214,56608,-13.5229,55038.6,13236.9,0.198141,8.83454e-06,0.500105,24,0.0301427
1,1,Potentiostatic EIS,33.779,7.72109,2.55272e-07,760.38,56935.6,-13.6152,55335.6,13402.6,0.181813,8.78346e-06,0.500092,23,0.030248
1,1,Potentiostatic EIS,33.8525,7.72109,2.56241e-07,726.157,57289,-13.681,55663.5,13549.8,0.225828,8.7288e-06,0.500064,22,0.0302965
1,1,Potentiostatic EIS,33.9309,7.72106,2.64087e-07,693.474,57558.7,-13.743,55910.9,13674.1,0.216577,8.68647e-06,0.499982,21,0.0302823
1,1,Potentiostatic EIS,34.0045,7.72111,2.21105e-07,662.263,57842.9,-13.7731,56179.7,13771.1,0.225621,8.6434e-06,0.499959,20,0.0301995
1,1,Potentiostatic EIS,34.078,7.72109,2.33647e-07,632.455,58198.8,-13.8527,56506.1,13934.3,0.202355,8.59033e-06,0.499947,19,0.0300416
1,1,Potentiostatic EIS,34.1515,7.72108,2.5539e-07,603.99,58563.8,-13.965,56832.8,14133.1,0.265117,8.53907e-06,0.50008,18,0.0298018
1,1,Potentiostatic EIS,34.2247,7.72108,2.53716e-07,576.807,58799.9,-14.0253,57047,14250.1,0.242056,8.50254e-06,0.499948,17,0.0294726
1,1,Potentiostatic EIS,34.2979,7.72105,2.23579e-07,550.847,59089,-14.1382,57299.1,14433.2,0.225728,8.4635e-06,0.5001,16,0.0290462
1,1,Potentiostatic EIS,34.3717,7.72109,2.50487e-07,526.055,59447.9,-14.241,57621,14624.3,0.2957,8.41005e-06,0.499959,16,0.0304151
1,1,Potentiostatic EIS,34.4449,7.72107,2.46373e-07,502.377,59763.3,-14.4706,57867.3,14933.8,0.242259,8.36572e-06,0.499963,15,0.029858
1,1,Potentiostatic EIS,34.5184,7.72108,2.51708e-07,479.766,60026.4,-14.586,58091.8,15116.6,0.243309,8.3286e-06,0.499936,14,0.0291809
1,1,Potentiostatic EIS,34.5918,7.72108,2.26784e-07,458.174,60243,-14.6992,58271.3,15286.3,0.177899,8.30168e-06,0.500118,14,0.0305561
1,1,Potentiostatic EIS,34.6651,7.72106,2.50772e-07,437.553,60616.9,-14.8529,58591.5,15538.4,0.184894,8.24784e-06,0.499959,13,0.0297107
1,1,Potentiostatic EIS,34.738,7.72109,2.43756e-07,417.86,60974.9,-15.0932,58871.5,15877.2,0.22829,8.19945e-06,0.499961,12,0.0287178
1,1,Potentiostatic EIS,34.8116,7.72108,2.88094e-07,399.053,61257,-15.1299,59133.6,15988.6,0.246343,8.16388e-06,0.500095,12,0.0300712
1,1,Potentiostatic EIS,34.8844,7.72104,2.503e-07,381.093,61616.2,-15.513,59371.5,16479.7,0.251372,8.1144e-06,0.499978,11,0.0288644
1,1,Potentiostatic EIS,34.9583,7.72104,2.3264e-07,363.94,61884.4,-15.635,59594.6,16678.4,0.274193,8.07906e-06,0.499968,11,0.0302247
1,1,Potentiostatic EIS,35.0312,7.72104,2.51522e-07,347.56,62375.8,-15.8862,59993.5,17073.9,0.316129,8.01604e-06,0.500007,10,0.028772
1,1,Potentiostatic EIS,35.1046,7.72102,2.23601e-07,331.918,62558.9,-16.163,60086.2,17414.6,0.320836,7.99223e-06,0.499986,10,0.030128
1,1,Potentiostatic EIS,35.1775,7.72107,2.34704e-07,316.979,62719,-16.4504,60151.6,17761.1,0.305063,7.97364e-06,0.500098,9,0.028393
1,1,Potentiostatic EIS,35.2505,7.72103,2.65718e-07,302.713,63261.8,-16.5628,60637,18033.8,0.266584,7.9034e-06,0.499984,9,0.0297312
1,1,Potentiostatic EIS,35.323,7.72108,2.10103e-07,289.088,63625.1,-17.066,60823.5,18672.3,0.317309,7.85584e-06,0.499829,8,0.0276732
1,1,Potentiostatic EIS,35.3961,7.72107,2.85724e-07,276.077,63973.1,-17.4174,61039.9,19149.1,0.409848,7.81734e-06,0.5001,8,0.0289774
1,1,Potentiostatic EIS,35.4697,7.72103,2.55504e-07,263.652,64335.6,-17.5904,61327.3,19442.9,0.19183,7.77169e-06,0.499996,8,0.0303431
1,1,Potentiostatic EIS,35.5443,7.72107,2.37028e-07,251.785,64686,-17.965,61532.2,19951.5,0.298404,7.72887e-06,0.499949,8,0.0317731
1,1,Potentiostatic EIS,35.6203,7.72108,2.36116e-07,240.453,65126.3,-18.2865,61837.4,20434.6,0.228393,7.67666e-06,0.499952,8,0.0332705
1,1,Potentiostatic EIS,35.6979,7.72105,2.76445e-07,229.631,65596,-18.9903,62025.9,21345.5,0.339222,7.62222e-06,0.499988,8,0.0348386
1,1,Potentiostatic EIS,35.7772,7.72104,2.25842e-07,219.296,66068.3,-19.3044,62353.6,21841.3,0.403559,7.56754e-06,0.499974,8,0.0364804
1,1,Potentiostatic EIS,35.8585,7.72108,2.47256e-07,209.426,66583.9,-19.7575,62664.2,22508.1,0.312301,7.50871e-06,0.49996,8,0.0381996
1,1,Potentiostatic EIS,35.9412,7.72105,2.7598e-07,200,66666.9,-20.4499,62465.4,23292.6,0.470261,7.49933e-06,0.499957,8,0.04
1,1,Potentiostatic EIS,36.0259,7.72105,2.50171e-07,190.999,67292.6,-20.9221,62855.7,24030,0.224338,7.43179e-06,0.500104,8,0.041885
1,1,Potentiostatic EIS,36.1122,7.72108,2.66934e-07,182.402,67789.1,-21.0953,63246.1,24398.7,0.281573,7.37542e-06,0.499973,8,0.0438591
1,1,Potentiostatic EIS,36.2009,7.72105,2.04494e-07,174.193,68301.7,-21.5933,63508.2,25136.1,0.246671,7.31997e-06,0.499966,8,0.0459261
1,1,Potentiostatic EIS,36.2916,7.72107,2.32532e-07,166.353,69048.8,-22.2207,63920.8,26112.6,0.362269,7.24055e-06,0.499952,8,0.0480905
1,1,Potentiostatic EIS,36.3847,7.72106,2.19879e-07,158.866,69406.3,-22.4725,64135.8,26529.8,0.384864,7.20551e-06,0.500108,8,0.050357
1,1,Potentiostatic EIS,36.4803,7.72108,2.54482e-07,151.716,69859.1,-23.7478,63943.9,28133.1,0.419281,7.15503e-06,0.499844,8,0.0527302
1,1,Potentiostatic EIS,36.5786,7.72106,2.53595e-07,144.887,70519,-24.2986,64272,29018,0.400058,7.08989e-06,0.499972,8,0.0552154
1,1,Potentiostatic EIS,36.6792,7.72105,2.50827e-07,138.367,71292.7,-24.4014,64924.4,29452.9,0.26607,7.01506e-06,0.500123,8,0.0578175
1,1,Potentiostatic EIS,36.7825,7.72104,2.60745e-07,132.139,72182.6,-25.1705,65328.6,30700.2,0.406404,6.92669e-06,0.499987,8,0.0605425
1,1,Potentiostatic EIS,36.8884,7.72106,2.784e-07,126.192,72735.7,-26.0342,65355.4,31924.3,0.449279,6.87477e-06,0.500041,8,0.0633956
1,1,Potentiostatic EIS,36.9978,7.72108,2.21831e-07,120.512,73522.5,-26.5815,65751.1,32899.1,0.427964,6.80062e-06,0.499999,8,0.0663834
1,1,Potentiostatic EIS,37.1099,7.72106,2.46672e-07,115.088,74503.9,-27.1749,66279.9,34026.6,0.304447,6.71252e-06,0.500109,8,0.0695119
1,1,Potentiostatic EIS,37.2257,7.72106,3.13582e-07,109.908,75111.6,-27.6972,66505,34911.8,0.635473,6.65612e-06,0.499952,8,0.0727879
1,1,Potentiostatic EIS,37.3447,7.72109,2.51382e-07,104.962,76357.9,-28.1788,67307.9,36058,0.216837,6.54889e-06,0.500059,8,0.0762184
1,1,Potentiostatic EIS,37.5609,7.72104,1.7508e-08,100.238,77425.9,-29.3944,67458.2,38002.1,0.123547,6.45772e-06,0.499995,8,0.0798104
1,1,Potentiostatic EIS,37.6877,7.72105,2.53709e-08,95.7261,78435.1,-30.1358,67833.6,39378.4,0.135935,6.37478e-06,0.500006,8,0.0835717
1,1,Potentiostatic EIS,37.8188,7.72103,-7.23804e-09,91.4177,79563.8,-30.7283,68393,40654.6,0.205367,6.28439e-06,0.50001,8,0.0875104
1,1,Potentiostatic EIS,37.9542,7.72103,1.571e-08,87.3033,80677,-31.6024,68713,42276.5,0.142939,6.19619e-06,0.49989,8,0.0916346
1,1,Potentiostatic EIS,38.0989,7.721,1.56337e-08,83.3739,81856.9,-32.3683,69138.3,43822.9,0.145167,6.10913e-06,0.500074,8,0.0959533
1,1,Potentiostatic EIS,38.2436,7.72101,1.69357e-08,79.6215,83138.4,-33.1268,69625.4,45434.6,0.126479,6.01448e-06,0.500034,8,0.100475
1,1,Potentiostatic EIS,38.3932,7.72099,1.82018e-08,76.0379,84445.2,-33.9162,70077.3,47118.7,0.0725418,5.92181e-06,0.500068,8,0.105211
1,1,Potentiostatic EIS,38.5483,7.72103,1.80282e-08,72.6157,85841.3,-34.7324,70546.3,48907.6,0.0812334,5.82684e-06,0.500183,8,0.110169
1,1,Potentiostatic EIS,38.7088,7.72107,4.16443e-08,69.3475,87193.4,-35.5195,70968.3,50657.6,0.18443,5.73464e-06,0.500023,8,0.115361
1,1,Potentiostatic EIS,38.8753,7.72104,1.86927e-08,66.2263,88884.7,-36.326,71610.8,52653.4,0.174356,5.62708e-06,0.500161,8,0.120798
1,1,Potentiostatic EIS,39.0479,7.72104,1.94951e-08,63.2457,90580.1,-37.1404,72206.7,54689.6,0.149873,5.51879e-06,0.499893,8,0.126491
1,1,Potentiostatic EIS,39.2267,7.72094,-9.05603e-09,60.3992,92060.6,-38.1168,72429.1,56825.9,0.280632,5.43237e-06,0.500107,8,0.132452
1,1,Potentiostatic EIS,39.4122,7.72104,1.84172e-08,57.6807,94071.1,-38.7729,73341,58910.6,0.176383,5.31505e-06,0.499993,8,0.138695
1,1,Potentiostatic EIS,39.6044,7.72097,2.67982e-09,55.0846,95807.9,-39.7389,73672.9,61249,0.236519,5.21963e-06,0.500082,8,0.145231
1,1,Potentiostatic EIS,39.8041,7.72106,-9.87037e-09,52.6054,97861.5,-40.2454,74696.1,63224.7,0.329651,5.10893e-06,0.499967,8,0.152076
1,1,Potentiostatic EIS,40.0113,7.72106,1.68575e-08,50.2378,100103,-41.4085,75078.6,66210.5,0.262157,4.9971e-06,0.500225,8,0.159243
1,1,Potentiostatic EIS,40.2266,7.72101,1.86388e-08,47.9768,102531,-42.1182,76053.4,68763.4,0.195539,4.87751e-06,0.500094,8,0.166747
1,1,Potentiostatic EIS,40.45,7.72113,1.88461e-08,45.8174,104464,-42.8246,76618,71010.3,0.131679,4.7873e-06,0.500102,8,0.174606
1,1,Potentiostatic EIS,40.6822,7.72101,1.82027e-08,43.7552,107066,-43.5902,77546.9,73821.5,0.136348,4.67127e-06,0.500134,8,0.182835
1,1,Potentiostatic EIS,40.9238,7.72105,1.82239e-08,41.786,109627,-44.4475,78262,76766.9,0.141954,4.56104e-06,0.500014,8,0.191452
1,1,Potentiostatic EIS,41.1748,7.72098,1.79629e-08,39.9053,112251,-45.1932,79105.6,79640.8,0.178839,4.4548e-06,0.500057,8,0.200475
1,1,Potentiostatic EIS,41.4357,7.72104,1.92765e-08,38.1093,115043,-45.9418,79999.5,82673.7,0.145855,4.34533e-06,0.499899,8,0.209923
1,1,Potentiostatic EIS,41.707,7.72112,1.38391e-08,36.3941,117987,-46.7079,80905.4,85878.6,0.143108,4.23729e-06,0.499944,8,0.219816
1,1,Potentiostatic EIS,41.9898,7.72107,1.78547e-08,34.7561,121015,-47.4989,81758.6,89220.4,0.171066,4.13338e-06,0.500203,8,0.230176
1,1,Potentiostatic EIS,42.284,7.721,1.88106e-08,33.1917,124281,-48.2291,82790.5,92690.9,0.282685,4.02348e-06,0.500043,8,0.241024
1,1,Potentiostatic EIS,42.418,7.7204,4.55255e-09,31.6979,127935,-48.9476,84021.1,96476.8,0.457629,3.92496e-06,0.502139,2,0.0630957
1,1,Potentiostatic EIS,42.5435,7.72233,1.33771e-08,30.2713,131097,-49.5596,85037,99775.7,0.57121,3.84252e-06,0.503744,2,0.0660693
1,1,Potentiostatic EIS,42.6772,7.72155,2.27584e-08,28.9088,134869,-50.3953,85977.4,103912,0.532215,3.69956e-06,0.498959,2,0.069183
1,1,Potentiostatic EIS,42.8061,7.71846,1.41289e-08,27.6077,138639,-51.0799,87098.4,107865,0.592931,3.61742e-06,0.501518,2,0.0724435
1,1,Potentiostatic EIS,42.9403,7.72112,-1.43412e-08,26.3652,141834,-51.4935,88306.5,110991,0.82761,3.53073e-06,0.500764,2,0.0758577
1,1,Potentiostatic EIS,43.0935,7.72058,2.02363e-08,25.1785,146774,-52.3732,89607.5,116245,0.537046,3.43116e-06,0.503604,2,0.0794327
1,1,Potentiostatic EIS,43.2538,7.72032,1.67719e-08,24.0453,151108,-53.0602,90812,120775,0.58923,3.31404e-06,0.500776,2,0.0831763
1,1,Potentiostatic EIS,43.4209,7.72,1.19499e-08,22.9631,155772,-53.675,92274,125501,0.725277,3.20774e-06,0.499678,2,0.0870962
1,1,Potentiostatic EIS,43.5952,7.72105,2.06127e-08,21.9296,160359,-54.2873,93605,130204,0.652038,3.12532e-06,0.501174,2,0.0912009
1,1,Potentiostatic EIS,43.7775,7.72295,2.00969e-08,20.9426,165236,-54.8568,95113.4,135116,0.674287,3.04799e-06,0.503637,2,0.0954991
1,1,Potentiostatic EIS,43.9497,7.72043,1.98746e-08,20,170309,-55.4294,96637,140237,0.730935,2.94207e-06,0.501061,2,0.0999999
1,1,Potentiostatic EIS,44.147,7.72088,1.67928e-08,19.0999,175935,-56.0154,98342.5,145884,0.710346,2.83768e-06,0.499248,2,0.104713
1,1,Potentiostatic EIS,44.3541,7.72157,2.00629e-08,18.2402,181212,-56.6468,99630,151366,0.730202,2.77255e-06,0.50242,2,0.109648
1,1,Potentiostatic EIS,44.5711,7.72144,2.19749e-08,17.4193,187007,-57.1661,101396,157132,0.825187,2.6702e-06,0.499346,2,0.114815
1,1,Potentiostatic EIS,44.7968,7.72088,2.2492e-08,16.6353,193029,-57.7053,103130,163170,0.828291,2.59792e-06,0.501475,2,0.120226
1,1,Potentiostatic EIS,45.0344,7.7206,1.89322e-08,15.8866,199196,-58.2074,104946,169309,0.860043,2.50992e-06,0.499967,2,0.125892
1,1,Potentiostatic EIS,45.2788,7.7214,1.76089e-08,15.1716,205650,-58.7804,106592,175869,0.844973,2.43625e-06,0.501016,2,0.131826
1,1,Potentiostatic EIS,45.5355,7.72206,2.42169e-08,14.4888,212624,-59.2251,108793,182683,0.843536,2.35534e-06,0.500802,2,0.138038
1,1,Potentiostatic EIS,45.8028,7.721,2.05015e-08,13.8366,219430,-59.7218,110636,189497,0.919139,2.28168e-06,0.500668,2,0.144544
1,1,Potentiostatic EIS,46.0825,7.72077,1.91426e-08,13.2139,226676,-60.2367,112526,196773,0.87443,2.20491e-06,0.499799,2,0.151356
1,1,Potentiostatic EIS,46.3813,7.72129,2.04884e-08,12.6191,234412,-60.6814,114784,204387,0.976498,2.13774e-06,0.501112,2,0.158489
1,1,Potentiostatic EIS,46.6689,7.72122,2.1995e-08,12.0512,242387,-61.1777,116853,212360,1.01135,2.06561e-06,0.500677,2,0.165958
1,1,Potentiostatic EIS,46.9843,7.72115,2.05203e-08,11.5088,250593,-61.6235,119097,220482,0.979021,1.99449e-06,0.499804,2,0.17378
1,1,Potentiostatic EIS,47.3249,7.72125,2.11281e-08,10.9908,259207,-62.0092,121654,228886,0.987716,1.92704e-06,0.499503,2,0.18197
1,1,Potentiostatic EIS,47.6515,7.72081,1.99591e-08,10.4962,267967,-62.4684,123864,237621,1.05118,1.87067e-06,0.501278,2,0.190546
1,1,Potentiostatic EIS,47.9661,7.72105,2.10363e-08,10.0238,277263,-62.8863,126365,246793,1.08012,1.80606e-06,0.500753,2,0.199526
1,1,Potentiostatic EIS,48.3522,7.72107,1.96409e-08,9.57261,286857,-63.2702,129024,256203,1.11993,1.74369e-06,0.500191,2,0.208929
1,1,Potentiostatic EIS,48.7537,7.72185,2.32671e-08,9.14179,296803,-63.7106,131456,266104,1.12893,1.68811e-06,0.501037,2,0.218776
1,1,Potentiostatic EIS,49.1796,7.72103,2.11409e-08,8.73033,307362,-64.0996,134258,276488,1.1675,1.62891e-06,0.500664,2,0.229086
1,1,Potentiostatic EIS,49.7718,7.72115,3.80162e-08,8.33741,317572,-64.471,136864,286567,1.23313,1.57594e-06,0.500474,2,0.239883
1,1,Potentiostatic EIS,50.2457,7.7209,3.70052e-08,7.96215,328710,-64.8311,139796,297502,1.25501,1.52104e-06,0.49998,2,0.251188
1,1,Potentiostatic EIS,50.6946,7.72145,4.55063e-08,7.60381,338985,-65.1997,142190,307723,1.35773,1.47833e-06,0.501123,2,0.263026
1,1,Potentiostatic EIS,51.1272,7.72094,3.88388e-08,7.26156,352613,-65.6018,145656,321123,1.25611,1.42003e-06,0.500719,2,0.275423
1,1,Potentiostatic EIS,51.6146,7.72126,4.04514e-08,6.93474,365496,-65.9369,149028,333734,1.28837,1.37007e-06,0.500755,2,0.288403
1,1,Potentiostatic EIS,52.1712,7.72099,3.79398e-08,6.62262,378597,-66.2859,152261,346629,1.31292,1.32074e-06,0.500027,2,0.301995
1,1,Potentiostatic EIS,52.7178,7.72162,3.94956e-08,6.32456,392161,-66.6413,155486,360020,1.35526,1.27606e-06,0.500421,2,0.316228
1,1,Potentiostatic EIS,53.2373,7.72112,3.8285e-08,6.03991,406340,-66.9568,159052,373918,1.42213,1.23208e-06,0.500642,2,0.331131
1,1,Potentiostatic EIS,53.7811,7.72113,3.82095e-08,5.76807,421147,-67.3269,162341,388600,1.45334,1.18728e-06,0.500018,2,0.346736
1,1,Potentiostatic EIS,54.4351,7.72126,3.88018e-08,5.50847,436732,-67.5897,166499,403749,1.52225,1.1452e-06,0.500148,2,0.363077
1,1,Potentiostatic EIS,55.1499,7.72104,3.83297e-08,5.26054,452712,-67.9036,170295,419462,1.52044,1.10511e-06,0.500296,2,0.380189
1,1,Potentiostatic EIS,55.8817,7.72098,3.79273e-08,5.02378,469665,-68.226,174220,436156,1.6221,1.06445e-06,0.499936,2,0.398107
1,1,Potentiostatic EIS,56.6487,7.7213,3.90721e-08,4.79768,487160,-68.5179,178403,453318,1.63788,1.02685e-06,0.500242,2,0.416869
1,1,Potentiostatic EIS,57.4015,7.72087,3.81152e-08,4.58174,505283,-68.8155,182596,471137,1.73833,9.89503e-07,0.499979,2,0.436515
1,1,Potentiostatic EIS,58.2592,7.7211,3.86939e-08,4.37553,524094,-69.0716,187207,489518,1.74857,9.54801e-07,0.500405,2,0.457087
1,1,Potentiostatic EIS,59.1387,7.72112,3.88511e-08,4.17859,543823,-69.3414,191860,508854,1.84774,9.1928e-07,0.499925,2,0.47863
1,1,Potentiostatic EIS,60.0456,7.72085,3.85401e-08,3.99053,564420,-69.6263,196498,529112,1.85734,8.8668e-07,0.50046,2,0.501186
1,1,Potentiostatic EIS,61.007,7.72109,3.84483e-08,3.81093,585877,-69.856,201765,550039,1.92733,8.53846e-07,0.500249,2,0.524806
1,1,Potentiostatic EIS,61.8627,7.721,3.87831e-08,3.63941,607965,-70.1064,206875,571685,0.87062,8.23096e-07,0.500413,2,0.549539
1,1,Potentiostatic EIS,62.8488,7.72103,3.94136e-08,3.47561,631447,-70.346,212381,594659,0.70153,7.92481e-07,0.50041,2,0.575438
1,1,Potentiostatic EIS,63.7847,7.72107,3.91031e-08,3.31918,655750,-70.5988,217827,618514,0.234118,7.63096e-07,0.500401,2,0.602559
1,1,Potentiostatic EIS,64.7626,7.72108,3.92271e-08,3.16979,680349,-70.8261,223451,642608,0.445686,7.35592e-07,0.500459,2,0.630956
1,1,Potentiostatic EIS,65.8905,7.72104,3.91295e-08,3.02713,706629,-71.0372,229622,668280,0.466001,7.07446e-07,0.499901,2,0.660692
1,1,Potentiostatic EIS,67.1301,7.72132,3.93766e-08,2.89089,734293,-71.2715,235769,695413,0.329687,6.8163e-07,0.500516,2,0.691829
1,1,Potentiostatic EIS,68.7965,7.72106,4.74114e-09,2.76077,764361,-71.4732,242875,724748,0.224181,6.53896e-07,0.499813,2,0.724435
1,1,Potentiostatic EIS,69.966,7.7211,4.76903e-09,2.63652,794007,-71.6622,249810,753686,0.235354,6.29557e-07,0.499873,2,0.758577
1,1,Potentiostatic EIS,71.1894,7.72109,4.87121e-09,2.51786,825012,-71.8634,256813,784023,0.254769,6.06139e-07,0.500072,2,0.794326
1,1,Potentiostatic EIS,72.4691,7.72108,4.71231e-09,2.40453,857149,-72.0432,264259,815396,0.304296,5.83648e-07,0.500273,2,0.831762
1,1,Potentiostatic EIS,73.9461,7.72113,4.67275e-09,2.29631,890564,-72.2165,271997,848011,0.300973,5.62151e-07,0.500631,2,0.870963
1,1,Potentiostatic EIS,75.3463,7.721,4.87509e-09,2.19296,925768,-72.3851,280154,882360,0.325713,5.40314e-07,0.500206,2,0.912008
1,1,Potentiostatic EIS,77.07,7.72126,5.1251e-09,2.09426,962700,-72.551,288672,918400,0.301517,5.19722e-07,0.500336,2,0.954992
1,1,Potentiostatic EIS,78.7545,7.72108,4.81579e-09,2,1.00032e+06,-72.6982,297499,955055,0.221102,5.00064e-07,0.500222,2,0.999999
1,1,Potentiostatic EIS,80.5242,7.72089,4.91804e-09,1.90999,1.03985e+06,-72.8356,306875,993540,0.200867,4.81438e-07,0.500625,2,1.04713
1,1,Potentiostatic EIS,82.2013,7.72108,4.97842e-09,1.82403,1.08151e+06,-72.9413,317264,1.03393e+06,0.294708,4.62377e-07,0.500067,2,1.09648
1,1,Potentiostatic EIS,83.9562,7.7211,4.83179e-09,1.74193,1.12385e+06,-73.0964,326773,1.07529e+06,0.353915,4.45203e-07,0.500341,2,1.14815
1,1,Potentiostatic EIS,85.792,7.72107,5.05236e-09,1.66353,1.16893e+06,-73.2028,337804,1.11906e+06,0.203483,4.28164e-07,0.500495,2,1.20226
1,1,Potentiostatic EIS,87.9045,7.72106,4.71527e-09,1.58866,1.21567e+06,-73.3028,349279,1.16441e+06,0.397786,4.11563e-07,0.500326,2,1.25892
1,1,Potentiostatic EIS,89.9143,7.72105,4.76824e-09,1.51716,1.26406e+06,-73.403,361064,1.2114e+06,0.219701,3.95915e-07,0.500462,2,1.31826
1,1,Potentiostatic EIS,94.1105,7.72098,2.38982e-08,1.44887,1.31219e+06,-73.4758,373213,1.25799e+06,0.353582,3.81217e-07,0.500225,2,1.38038
1,1,Potentiostatic EIS,97.4006,7.72111,4.95201e-09,1.38367,1.36707e+06,-73.5716,386632,1.31126e+06,0.209728,3.6584e-07,0.500131,2,1.44544
1,1,Potentiostatic EIS,99.7044,7.7211,5.02325e-09,1.32139,1.42193e+06,-73.66,400041,1.3645e+06,0.265123,3.51569e-07,0.499908,2,1.51356
1,1,Potentiostatic EIS,102.366,7.72073,4.86377e-09,1.26192,1.47853e+06,-73.6849,415348,1.41899e+06,0.380739,3.38428e-07,0.500377,2,1.58489
1,1,Potentiostatic EIS,104.889,7.72104,4.89345e-09,1.20512,1.53795e+06,-73.7644,429994,1.47662e+06,0.364436,3.25183e-07,0.500116,2,1.65959
1,1,Potentiostatic EIS,107.529,7.72105,4.92814e-09,1.15088,1.59885e+06,-73.7986,446103,1.53536e+06,0.291421,3.12866e-07,0.500226,2,1.7378
1,1,Potentiostatic EIS,110.291,7.72105,5.12866e-09,1.09908,1.66317e+06,-73.8371,462976,1.59743e+06,0.362662,3.00683e-07,0.500087,2,1.8197
1,1,Potentiostatic EIS,113.183,7.72106,5.13505e-09,1.04962,1.73019e+06,-73.873,480592,1.66211e+06,0.346028,2.88959e-07,0.499955,2,1.90546
1,1,Potentiostatic EIS,116.209,7.72107,5.04814e-09,1.00238,1.79811e+06,-73.8416,500402,1.72708e+06,0.345782,2.7791e-07,0.499712,2,1.99526
1,1,Potentiostatic EIS,119.48,7.72132,5.1629e-09,1,1.80266e+06,-73.8632,501016,1.73164e+06,0.266411,2.77467e-07,0.50018,2,2